<?xml version="1.0" encoding="UTF-8"?>
<Bundle xmlns="http://hl7.org/fhir">
  <type value="transaction"/>
  <entry>
    <resource>
      <Patient>
        <meta>
          <tag>
            <system value="https://smarthealthit.org/tags"/>
            <code value="smart-8-2017"/>
          </tag>
        </meta>
        <id value="smart-1157764"/>
        <text>
          <status value="generated"/>
          <div xmlns="http://www.w3.org/1999/xhtml">
            <p>
              Carol Hughes
            </p>
          </div>
        </text>
        <identifier>
          <use value="usual"/>
          <type>
            <coding>
              <system value="http://hl7.org/fhir/v2/0203"/>
              <code value="MR"/>
              <display value="Medical record number"/>
            </coding>
            <text value="Medical record number"/>
          </type>
          <system value="http://hospital.smarthealthit.org"/>
          <value value="1157764"/>
        </identifier>
        <name>
          <use value="official"/>
          <family value="Hughes"/>
          <given value="Carol"/>
          <given value="U."/>
        </name>
        <telecom>
          <system value="phone"/>
          <value value="800-971-5389"/>
          <use value="mobile"/>
        </telecom>
        <telecom>
          <system value="email"/>
          <value value="carol.hughes@example.com"/>
        </telecom>
        <gender value="female"/>
        <birthDate value="1953-06-28"/>
        <address>
          <use value="home"/>
          <line value="36 South St"/>
          <city value="Tulsa"/>
          <state value="OK"/>
          <postalCode value="74108"/>
          <country value="USA"/>
        </address>
        <active value="true"/>
      </Patient>
    </resource>
    <request>
      <method value="PUT"/>
      <url value="Patient/smart-1157764"/>
    </request>
  </entry>
  <entry>
    <resource>
      <Observation>
        <meta>
          <tag>
            <system value="https://smarthealthit.org/tags"/>
            <code value="smart-8-2017"/>
          </tag>
        </meta>
        <id value="smart-Observation-1842-lab"/>
        <text>
          <status value="generated"/>
          <div xmlns="http://www.w3.org/1999/xhtml">
            2008-03-16: LDLc SerPl Calc-mCnc = 101 mg/dL
          </div>
        </text>
        <category>
          <coding>
            <system value="http://hl7.org/fhir/observation-category"/>
            <code value="laboratory"/>
            <display value="Laboratory"/>
          </coding>
          <text value="Laboratory"/>
        </category>
        <code>
          <coding>
            <system value="http://loinc.org"/>
            <code value="13457-7"/>
            <display value="LDLc SerPl Calc-mCnc"/>
          </coding>
          <text value="LDLc SerPl Calc-mCnc"/>
        </code>
        <valueQuantity>
          <value value="101.0"/>
          <unit value="mg/dL"/>
          <system value="http://unitsofmeasure.org"/>
          <code value=""/>
        </valueQuantity>
        <effectiveDateTime value="2008-03-16"/>
        <status value="final"/>
        <subject>
          <reference value="Patient/smart-1157764"/>
        </subject>
        <referenceRange>
          <meaning>
            <coding>
              <system value="http://hl7.org/fhir/referencerange-meaning"/>
              <code value="normal"/>
              <display value="Normal Range"/>
            </coding>
            <text value="Normal Range"/>
          </meaning>
          <low>
            <value value="0.0"/>
            <unit value="mg/dL"/>
            <code value="mg/dL"/>
            <system value="http://unitsofmeasure.org"/>
          </low>
          <high>
            <value value="100.0"/>
            <unit value="mg/dL"/>
            <code value="mg/dL"/>
            <system value="http://unitsofmeasure.org"/>
          </high>
        </referenceRange>
      </Observation>
    </resource>
    <request>
      <method value="PUT"/>
      <url value="Observation/smart-Observation-1842-lab"/>
    </request>
  </entry>
  <entry>
    <resource>
      <Observation>
        <meta>
          <tag>
            <system value="https://smarthealthit.org/tags"/>
            <code value="smart-8-2017"/>
          </tag>
        </meta>
        <id value="smart-Observation-1843-lab"/>
        <text>
          <status value="generated"/>
          <div xmlns="http://www.w3.org/1999/xhtml">
            2008-03-16: TSH SerPl DL&lt;=0.005 mU/L-aCnc = 3.548 mcU/mL
          </div>
        </text>
        <category>
          <coding>
            <system value="http://hl7.org/fhir/observation-category"/>
            <code value="laboratory"/>
            <display value="Laboratory"/>
          </coding>
          <text value="Laboratory"/>
        </category>
        <code>
          <coding>
            <system value="http://loinc.org"/>
            <code value="11580-8"/>
            <display value="TSH SerPl DL&lt;=0.005 mU/L-aCnc"/>
          </coding>
          <text value="TSH SerPl DL&lt;=0.005 mU/L-aCnc"/>
        </code>
        <valueQuantity>
          <value value="3.548"/>
          <unit value="mcU/mL"/>
          <system value="http://unitsofmeasure.org"/>
          <code value=""/>
        </valueQuantity>
        <effectiveDateTime value="2008-03-16"/>
        <status value="final"/>
        <subject>
          <reference value="Patient/smart-1157764"/>
        </subject>
        <referenceRange>
          <meaning>
            <coding>
              <system value="http://hl7.org/fhir/referencerange-meaning"/>
              <code value="normal"/>
              <display value="Normal Range"/>
            </coding>
            <text value="Normal Range"/>
          </meaning>
          <low>
            <value value="0.4"/>
            <unit value="mcU/mL"/>
            <code value="mcU/mL"/>
            <system value="http://unitsofmeasure.org"/>
          </low>
          <high>
            <value value="4.2"/>
            <unit value="mcU/mL"/>
            <code value="mcU/mL"/>
            <system value="http://unitsofmeasure.org"/>
          </high>
        </referenceRange>
      </Observation>
    </resource>
    <request>
      <method value="PUT"/>
      <url value="Observation/smart-Observation-1843-lab"/>
    </request>
  </entry>
  <entry>
    <resource>
      <Observation>
        <meta>
          <tag>
            <system value="https://smarthealthit.org/tags"/>
            <code value="smart-8-2017"/>
          </tag>
        </meta>
        <id value="smart-Observation-1844-lab"/>
        <text>
          <status value="generated"/>
          <div xmlns="http://www.w3.org/1999/xhtml">
            2008-03-16: HDLc SerPl-mCnc = 66 mg/dL
          </div>
        </text>
        <category>
          <coding>
            <system value="http://hl7.org/fhir/observation-category"/>
            <code value="laboratory"/>
            <display value="Laboratory"/>
          </coding>
          <text value="Laboratory"/>
        </category>
        <code>
          <coding>
            <system value="http://loinc.org"/>
            <code value="2085-9"/>
            <display value="HDLc SerPl-mCnc"/>
          </coding>
          <text value="HDLc SerPl-mCnc"/>
        </code>
        <valueQuantity>
          <value value="66.0"/>
          <unit value="mg/dL"/>
          <system value="http://unitsofmeasure.org"/>
          <code value=""/>
        </valueQuantity>
        <effectiveDateTime value="2008-03-16"/>
        <status value="final"/>
        <subject>
          <reference value="Patient/smart-1157764"/>
        </subject>
        <referenceRange>
          <meaning>
            <coding>
              <system value="http://hl7.org/fhir/referencerange-meaning"/>
              <code value="normal"/>
              <display value="Normal Range"/>
            </coding>
            <text value="Normal Range"/>
          </meaning>
          <low>
            <value value="0.0"/>
            <unit value="mg/dL"/>
            <code value="mg/dL"/>
            <system value="http://unitsofmeasure.org"/>
          </low>
          <high>
            <value value="0.0"/>
            <unit value="mg/dL"/>
            <code value="mg/dL"/>
            <system value="http://unitsofmeasure.org"/>
          </high>
        </referenceRange>
      </Observation>
    </resource>
    <request>
      <method value="PUT"/>
      <url value="Observation/smart-Observation-1844-lab"/>
    </request>
  </entry>
  <entry>
    <resource>
      <Observation>
        <meta>
          <tag>
            <system value="https://smarthealthit.org/tags"/>
            <code value="smart-8-2017"/>
          </tag>
        </meta>
        <id value="smart-Observation-1845-lab"/>
        <text>
          <status value="generated"/>
          <div xmlns="http://www.w3.org/1999/xhtml">
            2008-03-16: Trigl SerPl-mCnc = 72 mg/dL
          </div>
        </text>
        <category>
          <coding>
            <system value="http://hl7.org/fhir/observation-category"/>
            <code value="laboratory"/>
            <display value="Laboratory"/>
          </coding>
          <text value="Laboratory"/>
        </category>
        <code>
          <coding>
            <system value="http://loinc.org"/>
            <code value="2571-8"/>
            <display value="Trigl SerPl-mCnc"/>
          </coding>
          <text value="Trigl SerPl-mCnc"/>
        </code>
        <valueQuantity>
          <value value="72.0"/>
          <unit value="mg/dL"/>
          <system value="http://unitsofmeasure.org"/>
          <code value=""/>
        </valueQuantity>
        <effectiveDateTime value="2008-03-16"/>
        <status value="final"/>
        <subject>
          <reference value="Patient/smart-1157764"/>
        </subject>
        <referenceRange>
          <meaning>
            <coding>
              <system value="http://hl7.org/fhir/referencerange-meaning"/>
              <code value="normal"/>
              <display value="Normal Range"/>
            </coding>
            <text value="Normal Range"/>
          </meaning>
          <low>
            <value value="0.0"/>
            <unit value="mg/dL"/>
            <code value="mg/dL"/>
            <system value="http://unitsofmeasure.org"/>
          </low>
          <high>
            <value value="150.0"/>
            <unit value="mg/dL"/>
            <code value="mg/dL"/>
            <system value="http://unitsofmeasure.org"/>
          </high>
        </referenceRange>
      </Observation>
    </resource>
    <request>
      <method value="PUT"/>
      <url value="Observation/smart-Observation-1845-lab"/>
    </request>
  </entry>
  <entry>
    <resource>
      <Observation>
        <meta>
          <tag>
            <system value="https://smarthealthit.org/tags"/>
            <code value="smart-8-2017"/>
          </tag>
        </meta>
        <id value="smart-Observation-1846-lab"/>
        <text>
          <status value="generated"/>
          <div xmlns="http://www.w3.org/1999/xhtml">
            2008-03-16: Cholest SerPl-mCnc = 181 mg/dL
          </div>
        </text>
        <category>
          <coding>
            <system value="http://hl7.org/fhir/observation-category"/>
            <code value="laboratory"/>
            <display value="Laboratory"/>
          </coding>
          <text value="Laboratory"/>
        </category>
        <code>
          <coding>
            <system value="http://loinc.org"/>
            <code value="2093-3"/>
            <display value="Cholest SerPl-mCnc"/>
          </coding>
          <text value="Cholest SerPl-mCnc"/>
        </code>
        <valueQuantity>
          <value value="181.0"/>
          <unit value="mg/dL"/>
          <system value="http://unitsofmeasure.org"/>
          <code value=""/>
        </valueQuantity>
        <effectiveDateTime value="2008-03-16"/>
        <status value="final"/>
        <subject>
          <reference value="Patient/smart-1157764"/>
        </subject>
        <referenceRange>
          <meaning>
            <coding>
              <system value="http://hl7.org/fhir/referencerange-meaning"/>
              <code value="normal"/>
              <display value="Normal Range"/>
            </coding>
            <text value="Normal Range"/>
          </meaning>
          <low>
            <value value="0.0"/>
            <unit value="mg/dL"/>
            <code value="mg/dL"/>
            <system value="http://unitsofmeasure.org"/>
          </low>
          <high>
            <value value="200.0"/>
            <unit value="mg/dL"/>
            <code value="mg/dL"/>
            <system value="http://unitsofmeasure.org"/>
          </high>
        </referenceRange>
      </Observation>
    </resource>
    <request>
      <method value="PUT"/>
      <url value="Observation/smart-Observation-1846-lab"/>
    </request>
  </entry>
  <entry>
    <resource>
      <Observation>
        <meta>
          <tag>
            <system value="https://smarthealthit.org/tags"/>
            <code value="smart-8-2017"/>
          </tag>
        </meta>
        <id value="smart-Observation-1847-lab"/>
        <text>
          <status value="generated"/>
          <div xmlns="http://www.w3.org/1999/xhtml">
            2010-06-23: pH Ur Strip = 5 [pH]
          </div>
        </text>
        <category>
          <coding>
            <system value="http://hl7.org/fhir/observation-category"/>
            <code value="laboratory"/>
            <display value="Laboratory"/>
          </coding>
          <text value="Laboratory"/>
        </category>
        <code>
          <coding>
            <system value="http://loinc.org"/>
            <code value="5803-2"/>
            <display value="pH Ur Strip"/>
          </coding>
          <text value="pH Ur Strip"/>
        </code>
        <valueQuantity>
          <value value="5.0"/>
          <unit value="[pH]"/>
          <system value="http://unitsofmeasure.org"/>
          <code value=""/>
        </valueQuantity>
        <effectiveDateTime value="2010-06-23"/>
        <status value="final"/>
        <subject>
          <reference value="Patient/smart-1157764"/>
        </subject>
        <referenceRange>
          <meaning>
            <coding>
              <system value="http://hl7.org/fhir/referencerange-meaning"/>
              <code value="normal"/>
              <display value="Normal Range"/>
            </coding>
            <text value="Normal Range"/>
          </meaning>
          <low>
            <value value="5.0"/>
            <unit value="[pH]"/>
            <code value="[pH]"/>
            <system value="http://unitsofmeasure.org"/>
          </low>
          <high>
            <value value="8.0"/>
            <unit value="[pH]"/>
            <code value="[pH]"/>
            <system value="http://unitsofmeasure.org"/>
          </high>
        </referenceRange>
      </Observation>
    </resource>
    <request>
      <method value="PUT"/>
      <url value="Observation/smart-Observation-1847-lab"/>
    </request>
  </entry>
  <entry>
    <resource>
      <Observation>
        <meta>
          <tag>
            <system value="https://smarthealthit.org/tags"/>
            <code value="smart-8-2017"/>
          </tag>
        </meta>
        <id value="smart-Observation-1848-lab"/>
        <text>
          <status value="generated"/>
          <div xmlns="http://www.w3.org/1999/xhtml">
            2010-06-23: Prot Ur Strip-mCnc = 0 mg/dL
          </div>
        </text>
        <category>
          <coding>
            <system value="http://hl7.org/fhir/observation-category"/>
            <code value="laboratory"/>
            <display value="Laboratory"/>
          </coding>
          <text value="Laboratory"/>
        </category>
        <code>
          <coding>
            <system value="http://loinc.org"/>
            <code value="5804-0"/>
            <display value="Prot Ur Strip-mCnc"/>
          </coding>
          <text value="Prot Ur Strip-mCnc"/>
        </code>
        <valueQuantity>
          <value value="0.0"/>
          <unit value="mg/dL"/>
          <system value="http://unitsofmeasure.org"/>
          <code value=""/>
        </valueQuantity>
        <effectiveDateTime value="2010-06-23"/>
        <status value="final"/>
        <subject>
          <reference value="Patient/smart-1157764"/>
        </subject>
        <referenceRange>
          <meaning>
            <coding>
              <system value="http://hl7.org/fhir/referencerange-meaning"/>
              <code value="normal"/>
              <display value="Normal Range"/>
            </coding>
            <text value="Normal Range"/>
          </meaning>
          <low>
            <value value="0.0"/>
            <unit value="mg/dL"/>
            <code value="mg/dL"/>
            <system value="http://unitsofmeasure.org"/>
          </low>
          <high>
            <value value="0.0"/>
            <unit value="mg/dL"/>
            <code value="mg/dL"/>
            <system value="http://unitsofmeasure.org"/>
          </high>
        </referenceRange>
      </Observation>
    </resource>
    <request>
      <method value="PUT"/>
      <url value="Observation/smart-Observation-1848-lab"/>
    </request>
  </entry>
  <entry>
    <resource>
      <Observation>
        <meta>
          <tag>
            <system value="https://smarthealthit.org/tags"/>
            <code value="smart-8-2017"/>
          </tag>
        </meta>
        <id value="smart-Observation-1849-lab"/>
        <text>
          <status value="generated"/>
          <div xmlns="http://www.w3.org/1999/xhtml">
            2010-06-23: RBC #/area UrnS HPF = 1 /[HPF]
          </div>
        </text>
        <category>
          <coding>
            <system value="http://hl7.org/fhir/observation-category"/>
            <code value="laboratory"/>
            <display value="Laboratory"/>
          </coding>
          <text value="Laboratory"/>
        </category>
        <code>
          <coding>
            <system value="http://loinc.org"/>
            <code value="13945-1"/>
            <display value="RBC #/area UrnS HPF"/>
          </coding>
          <text value="RBC #/area UrnS HPF"/>
        </code>
        <valueQuantity>
          <value value="1.0"/>
          <unit value="/[HPF]"/>
          <system value="http://unitsofmeasure.org"/>
          <code value=""/>
        </valueQuantity>
        <effectiveDateTime value="2010-06-23"/>
        <status value="final"/>
        <subject>
          <reference value="Patient/smart-1157764"/>
        </subject>
        <referenceRange>
          <meaning>
            <coding>
              <system value="http://hl7.org/fhir/referencerange-meaning"/>
              <code value="normal"/>
              <display value="Normal Range"/>
            </coding>
            <text value="Normal Range"/>
          </meaning>
          <low>
            <value value="0.0"/>
            <unit value="/[HPF]"/>
            <code value="/[HPF]"/>
            <system value="http://unitsofmeasure.org"/>
          </low>
          <high>
            <value value="2.0"/>
            <unit value="/[HPF]"/>
            <code value="/[HPF]"/>
            <system value="http://unitsofmeasure.org"/>
          </high>
        </referenceRange>
      </Observation>
    </resource>
    <request>
      <method value="PUT"/>
      <url value="Observation/smart-Observation-1849-lab"/>
    </request>
  </entry>
  <entry>
    <resource>
      <Observation>
        <meta>
          <tag>
            <system value="https://smarthealthit.org/tags"/>
            <code value="smart-8-2017"/>
          </tag>
        </meta>
        <id value="smart-Observation-1850-lab"/>
        <text>
          <status value="generated"/>
          <div xmlns="http://www.w3.org/1999/xhtml">
            2010-06-23: WBC #/area UrnS HPF = 1 /[HPF]
          </div>
        </text>
        <category>
          <coding>
            <system value="http://hl7.org/fhir/observation-category"/>
            <code value="laboratory"/>
            <display value="Laboratory"/>
          </coding>
          <text value="Laboratory"/>
        </category>
        <code>
          <coding>
            <system value="http://loinc.org"/>
            <code value="5821-4"/>
            <display value="WBC #/area UrnS HPF"/>
          </coding>
          <text value="WBC #/area UrnS HPF"/>
        </code>
        <valueQuantity>
          <value value="1.0"/>
          <unit value="/[HPF]"/>
          <system value="http://unitsofmeasure.org"/>
          <code value=""/>
        </valueQuantity>
        <effectiveDateTime value="2010-06-23"/>
        <status value="final"/>
        <subject>
          <reference value="Patient/smart-1157764"/>
        </subject>
        <referenceRange>
          <meaning>
            <coding>
              <system value="http://hl7.org/fhir/referencerange-meaning"/>
              <code value="normal"/>
              <display value="Normal Range"/>
            </coding>
            <text value="Normal Range"/>
          </meaning>
          <low>
            <value value="0.0"/>
            <unit value="/[HPF]"/>
            <code value="/[HPF]"/>
            <system value="http://unitsofmeasure.org"/>
          </low>
          <high>
            <value value="5.0"/>
            <unit value="/[HPF]"/>
            <code value="/[HPF]"/>
            <system value="http://unitsofmeasure.org"/>
          </high>
        </referenceRange>
      </Observation>
    </resource>
    <request>
      <method value="PUT"/>
      <url value="Observation/smart-Observation-1850-lab"/>
    </request>
  </entry>
  <entry>
    <resource>
      <Observation>
        <meta>
          <tag>
            <system value="https://smarthealthit.org/tags"/>
            <code value="smart-8-2017"/>
          </tag>
        </meta>
        <id value="smart-Observation-1851-lab"/>
        <text>
          <status value="generated"/>
          <div xmlns="http://www.w3.org/1999/xhtml">
            2010-06-23: Bacteria #/area UrnS HPF = 44 /[HPF]
          </div>
        </text>
        <category>
          <coding>
            <system value="http://hl7.org/fhir/observation-category"/>
            <code value="laboratory"/>
            <display value="Laboratory"/>
          </coding>
          <text value="Laboratory"/>
        </category>
        <code>
          <coding>
            <system value="http://loinc.org"/>
            <code value="5769-5"/>
            <display value="Bacteria #/area UrnS HPF"/>
          </coding>
          <text value="Bacteria #/area UrnS HPF"/>
        </code>
        <valueQuantity>
          <value value="44.0"/>
          <unit value="/[HPF]"/>
          <system value="http://unitsofmeasure.org"/>
          <code value=""/>
        </valueQuantity>
        <effectiveDateTime value="2010-06-23"/>
        <status value="final"/>
        <subject>
          <reference value="Patient/smart-1157764"/>
        </subject>
        <referenceRange>
          <meaning>
            <coding>
              <system value="http://hl7.org/fhir/referencerange-meaning"/>
              <code value="normal"/>
              <display value="Normal Range"/>
            </coding>
            <text value="Normal Range"/>
          </meaning>
          <low>
            <value value="0.0"/>
            <unit value="/[HPF]"/>
            <code value="/[HPF]"/>
            <system value="http://unitsofmeasure.org"/>
          </low>
          <high>
            <value value="0.0"/>
            <unit value="/[HPF]"/>
            <code value="/[HPF]"/>
            <system value="http://unitsofmeasure.org"/>
          </high>
        </referenceRange>
      </Observation>
    </resource>
    <request>
      <method value="PUT"/>
      <url value="Observation/smart-Observation-1851-lab"/>
    </request>
  </entry>
  <entry>
    <resource>
      <Observation>
        <meta>
          <tag>
            <system value="https://smarthealthit.org/tags"/>
            <code value="smart-8-2017"/>
          </tag>
        </meta>
        <id value="smart-Observation-1852-lab"/>
        <extension url="http://fhir-registry.smarthealthit.org/StructureDefinition/labs#value-range">
          <valueString value="['None', 'Few', 'Many']"/>
        </extension>
        <text>
          <status value="generated"/>
          <div xmlns="http://www.w3.org/1999/xhtml">
            2010-06-23: Squamous UrnS Ql HPF = None
          </div>
        </text>
        <category>
          <coding>
            <system value="http://hl7.org/fhir/observation-category"/>
            <code value="laboratory"/>
            <display value="Laboratory"/>
          </coding>
          <text value="Laboratory"/>
        </category>
        <code>
          <coding>
            <system value="http://loinc.org"/>
            <code value="12258-0"/>
            <display value="Squamous UrnS Ql HPF"/>
          </coding>
          <text value="Squamous UrnS Ql HPF"/>
        </code>
        <valueString value="None"/>
        <effectiveDateTime value="2010-06-23"/>
        <status value="final"/>
        <subject>
          <reference value="Patient/smart-1157764"/>
        </subject>
      </Observation>
    </resource>
    <request>
      <method value="PUT"/>
      <url value="Observation/smart-Observation-1852-lab"/>
    </request>
  </entry>
  <entry>
    <resource>
      <Observation>
        <meta>
          <tag>
            <system value="https://smarthealthit.org/tags"/>
            <code value="smart-8-2017"/>
          </tag>
        </meta>
        <id value="smart-Observation-1853-lab"/>
        <text>
          <status value="generated"/>
          <div xmlns="http://www.w3.org/1999/xhtml">
            2010-06-23: Sp Gr Ur Strip = 1.001
          </div>
        </text>
        <category>
          <coding>
            <system value="http://hl7.org/fhir/observation-category"/>
            <code value="laboratory"/>
            <display value="Laboratory"/>
          </coding>
          <text value="Laboratory"/>
        </category>
        <code>
          <coding>
            <system value="http://loinc.org"/>
            <code value="5811-5"/>
            <display value="Sp Gr Ur Strip"/>
          </coding>
          <text value="Sp Gr Ur Strip"/>
        </code>
        <valueQuantity>
          <value value="1.001"/>
          <unit value=""/>
          <system value="http://unitsofmeasure.org"/>
          <code value=""/>
        </valueQuantity>
        <effectiveDateTime value="2010-06-23"/>
        <status value="final"/>
        <subject>
          <reference value="Patient/smart-1157764"/>
        </subject>
        <referenceRange>
          <meaning>
            <coding>
              <system value="http://hl7.org/fhir/referencerange-meaning"/>
              <code value="normal"/>
              <display value="Normal Range"/>
            </coding>
            <text value="Normal Range"/>
          </meaning>
          <low>
            <value value="1.003"/>
            <unit value=""/>
            <code value=""/>
            <system value="http://unitsofmeasure.org"/>
          </low>
          <high>
            <value value="1.03"/>
            <unit value=""/>
            <code value=""/>
            <system value="http://unitsofmeasure.org"/>
          </high>
        </referenceRange>
      </Observation>
    </resource>
    <request>
      <method value="PUT"/>
      <url value="Observation/smart-Observation-1853-lab"/>
    </request>
  </entry>
  <entry>
    <resource>
      <Observation>
        <meta>
          <tag>
            <system value="https://smarthealthit.org/tags"/>
            <code value="smart-8-2017"/>
          </tag>
        </meta>
        <id value="smart-Observation-1854-lab"/>
        <extension url="http://fhir-registry.smarthealthit.org/StructureDefinition/labs#value-range">
          <valueString value="['Negative', 'Positive']"/>
        </extension>
        <text>
          <status value="generated"/>
          <div xmlns="http://www.w3.org/1999/xhtml">
            2010-06-23: Nitrite Ur Ql Strip = Negative
          </div>
        </text>
        <category>
          <coding>
            <system value="http://hl7.org/fhir/observation-category"/>
            <code value="laboratory"/>
            <display value="Laboratory"/>
          </coding>
          <text value="Laboratory"/>
        </category>
        <code>
          <coding>
            <system value="http://loinc.org"/>
            <code value="5802-4"/>
            <display value="Nitrite Ur Ql Strip"/>
          </coding>
          <text value="Nitrite Ur Ql Strip"/>
        </code>
        <valueString value="Negative"/>
        <effectiveDateTime value="2010-06-23"/>
        <status value="final"/>
        <subject>
          <reference value="Patient/smart-1157764"/>
        </subject>
      </Observation>
    </resource>
    <request>
      <method value="PUT"/>
      <url value="Observation/smart-Observation-1854-lab"/>
    </request>
  </entry>
  <entry>
    <resource>
      <Observation>
        <meta>
          <tag>
            <system value="https://smarthealthit.org/tags"/>
            <code value="smart-8-2017"/>
          </tag>
        </meta>
        <id value="smart-Observation-1855-lab"/>
        <text>
          <status value="generated"/>
          <div xmlns="http://www.w3.org/1999/xhtml">
            2010-06-23: Appearance Ur = Clear
          </div>
        </text>
        <category>
          <coding>
            <system value="http://hl7.org/fhir/observation-category"/>
            <code value="laboratory"/>
            <display value="Laboratory"/>
          </coding>
          <text value="Laboratory"/>
        </category>
        <code>
          <coding>
            <system value="http://loinc.org"/>
            <code value="5767-9"/>
            <display value="Appearance Ur"/>
          </coding>
          <text value="Appearance Ur"/>
        </code>
        <valueString value="Clear"/>
        <effectiveDateTime value="2010-06-23"/>
        <status value="final"/>
        <subject>
          <reference value="Patient/smart-1157764"/>
        </subject>
      </Observation>
    </resource>
    <request>
      <method value="PUT"/>
      <url value="Observation/smart-Observation-1855-lab"/>
    </request>
  </entry>
  <entry>
    <resource>
      <Observation>
        <meta>
          <tag>
            <system value="https://smarthealthit.org/tags"/>
            <code value="smart-8-2017"/>
          </tag>
        </meta>
        <id value="smart-Observation-1856-lab"/>
        <text>
          <status value="generated"/>
          <div xmlns="http://www.w3.org/1999/xhtml">
            2008-03-16: CRP SerPl HS-mCnc = 2.2 mg/L
          </div>
        </text>
        <category>
          <coding>
            <system value="http://hl7.org/fhir/observation-category"/>
            <code value="laboratory"/>
            <display value="Laboratory"/>
          </coding>
          <text value="Laboratory"/>
        </category>
        <code>
          <coding>
            <system value="http://loinc.org"/>
            <code value="30522-7"/>
            <display value="CRP SerPl HS-mCnc"/>
          </coding>
          <text value="CRP SerPl HS-mCnc"/>
        </code>
        <valueQuantity>
          <value value="2.2"/>
          <unit value="mg/L"/>
          <system value="http://unitsofmeasure.org"/>
          <code value=""/>
        </valueQuantity>
        <effectiveDateTime value="2008-03-16"/>
        <status value="final"/>
        <subject>
          <reference value="Patient/smart-1157764"/>
        </subject>
        <referenceRange>
          <meaning>
            <coding>
              <system value="http://hl7.org/fhir/referencerange-meaning"/>
              <code value="normal"/>
              <display value="Normal Range"/>
            </coding>
            <text value="Normal Range"/>
          </meaning>
          <low>
            <value value="0.0"/>
            <unit value="mg/L"/>
            <code value="mg/L"/>
            <system value="http://unitsofmeasure.org"/>
          </low>
          <high>
            <value value="3.0"/>
            <unit value="mg/L"/>
            <code value="mg/L"/>
            <system value="http://unitsofmeasure.org"/>
          </high>
        </referenceRange>
      </Observation>
    </resource>
    <request>
      <method value="PUT"/>
      <url value="Observation/smart-Observation-1856-lab"/>
    </request>
  </entry>
  <entry>
    <resource>
      <MedicationOrder>
        <meta>
          <tag>
            <system value="https://smarthealthit.org/tags"/>
            <code value="smart-8-2017"/>
          </tag>
        </meta>
        <id value="smart-MedicationOrder-128"/>
        <text>
          <status value="generated"/>
          <div xmlns="http://www.w3.org/1999/xhtml">
            anastrozole 1 MG Oral Tablet [Arimidex] (rxnorm: 151124)
          </div>
        </text>
        <status value="active"/>
        <patient>
          <reference value="Patient/smart-1157764"/>
        </patient>
        <medicationCodeableConcept>
          <coding>
            <system value="http://www.nlm.nih.gov/research/umls/rxnorm"/>
            <code value="151124"/>
            <display value="anastrozole 1 MG Oral Tablet [Arimidex]"/>
          </coding>
          <text value="anastrozole 1 MG Oral Tablet [Arimidex]"/>
        </medicationCodeableConcept>
        <dosageInstruction>
          <timing>
            <repeat>
              <boundsPeriod>
                <start value="2003-10-23"/>
              </boundsPeriod>
              <frequency value="1"/>
              <period value="1"/>
              <periodUnits value="d"/>
            </repeat>
          </timing>
          <doseQuantity>
            <value value="1"/>
            <unit value="{tablet}"/>
            <system value="http://unitsofmeasure.org"/>
            <code value="{tablet}"/>
          </doseQuantity>
          <text value="1 daily"/>
        </dosageInstruction>
        <dispenseRequest>
          <numberOfRepeatsAllowed value="1"/>
          <quantity>
            <value value="30"/>
            <unit value="{tablet}"/>
            <system value="http://unitsofmeasure.org"/>
            <code value="{tablet}"/>
          </quantity>
          <expectedSupplyDuration>
            <value value="30"/>
            <unit value="days"/>
            <system value="http://unitsofmeasure.org"/>
            <code value="d"/>
          </expectedSupplyDuration>
        </dispenseRequest>
      </MedicationOrder>
    </resource>
    <request>
      <method value="PUT"/>
      <url value="MedicationOrder/smart-MedicationOrder-128"/>
    </request>
  </entry>
  <entry>
    <resource>
      <MedicationDispense>
        <meta>
          <tag>
            <system value="https://smarthealthit.org/tags"/>
            <code value="smart-8-2017"/>
          </tag>
        </meta>
        <id value="smart-MedicationDispense-928"/>
        <text>
          <status value="generated"/>
          <div xmlns="http://www.w3.org/1999/xhtml">
            Dispensed 30 tablets = 30 day supply of anastrozole 1 MG Oral Tablet [Arimidex]
          </div>
        </text>
        <status value="completed"/>
        <patient>
          <reference value="Patient/smart-1157764"/>
        </patient>
        <authorizingPrescription>
          <reference value="MedicationOrder/smart-MedicationOrder-128"/>
        </authorizingPrescription>
        <quantity>
          <value value="30"/>
          <unit value="tablets"/>
          <system value="http://unitsofmeasure.org"/>
          <code value="{tablets}"/>
        </quantity>
        <daysSupply>
          <value value="30"/>
          <unit value="days"/>
          <system value="http://unitsofmeasure.org"/>
          <code value="d"/>
        </daysSupply>
        <medicationCodeableConcept>
          <coding>
            <system value="http://www.nlm.nih.gov/research/umls/rxnorm"/>
            <code value="151124"/>
            <display value="anastrozole 1 MG Oral Tablet [Arimidex]"/>
          </coding>
          <text value="anastrozole 1 MG Oral Tablet [Arimidex]"/>
        </medicationCodeableConcept>
        <whenHandedOver value="2009-02-25"/>
      </MedicationDispense>
    </resource>
    <request>
      <method value="PUT"/>
      <url value="MedicationDispense/smart-MedicationDispense-928"/>
    </request>
  </entry>
  <entry>
    <resource>
      <MedicationDispense>
        <meta>
          <tag>
            <system value="https://smarthealthit.org/tags"/>
            <code value="smart-8-2017"/>
          </tag>
        </meta>
        <id value="smart-MedicationDispense-913"/>
        <text>
          <status value="generated"/>
          <div xmlns="http://www.w3.org/1999/xhtml">
            Dispensed 30 tablets = 30 day supply of anastrozole 1 MG Oral Tablet [Arimidex]
          </div>
        </text>
        <status value="completed"/>
        <patient>
          <reference value="Patient/smart-1157764"/>
        </patient>
        <authorizingPrescription>
          <reference value="MedicationOrder/smart-MedicationOrder-128"/>
        </authorizingPrescription>
        <quantity>
          <value value="30"/>
          <unit value="tablets"/>
          <system value="http://unitsofmeasure.org"/>
          <code value="{tablets}"/>
        </quantity>
        <daysSupply>
          <value value="30"/>
          <unit value="days"/>
          <system value="http://unitsofmeasure.org"/>
          <code value="d"/>
        </daysSupply>
        <medicationCodeableConcept>
          <coding>
            <system value="http://www.nlm.nih.gov/research/umls/rxnorm"/>
            <code value="151124"/>
            <display value="anastrozole 1 MG Oral Tablet [Arimidex]"/>
          </coding>
          <text value="anastrozole 1 MG Oral Tablet [Arimidex]"/>
        </medicationCodeableConcept>
        <whenHandedOver value="2007-09-13"/>
      </MedicationDispense>
    </resource>
    <request>
      <method value="PUT"/>
      <url value="MedicationDispense/smart-MedicationDispense-913"/>
    </request>
  </entry>
  <entry>
    <resource>
      <MedicationDispense>
        <meta>
          <tag>
            <system value="https://smarthealthit.org/tags"/>
            <code value="smart-8-2017"/>
          </tag>
        </meta>
        <id value="smart-MedicationDispense-936"/>
        <text>
          <status value="generated"/>
          <div xmlns="http://www.w3.org/1999/xhtml">
            Dispensed 30 tablets = 30 day supply of anastrozole 1 MG Oral Tablet [Arimidex]
          </div>
        </text>
        <status value="completed"/>
        <patient>
          <reference value="Patient/smart-1157764"/>
        </patient>
        <authorizingPrescription>
          <reference value="MedicationOrder/smart-MedicationOrder-128"/>
        </authorizingPrescription>
        <quantity>
          <value value="30"/>
          <unit value="tablets"/>
          <system value="http://unitsofmeasure.org"/>
          <code value="{tablets}"/>
        </quantity>
        <daysSupply>
          <value value="30"/>
          <unit value="days"/>
          <system value="http://unitsofmeasure.org"/>
          <code value="d"/>
        </daysSupply>
        <medicationCodeableConcept>
          <coding>
            <system value="http://www.nlm.nih.gov/research/umls/rxnorm"/>
            <code value="151124"/>
            <display value="anastrozole 1 MG Oral Tablet [Arimidex]"/>
          </coding>
          <text value="anastrozole 1 MG Oral Tablet [Arimidex]"/>
        </medicationCodeableConcept>
        <whenHandedOver value="2009-10-24"/>
      </MedicationDispense>
    </resource>
    <request>
      <method value="PUT"/>
      <url value="MedicationDispense/smart-MedicationDispense-936"/>
    </request>
  </entry>
  <entry>
    <resource>
      <MedicationDispense>
        <meta>
          <tag>
            <system value="https://smarthealthit.org/tags"/>
            <code value="smart-8-2017"/>
          </tag>
        </meta>
        <id value="smart-MedicationDispense-925"/>
        <text>
          <status value="generated"/>
          <div xmlns="http://www.w3.org/1999/xhtml">
            Dispensed 30 tablets = 30 day supply of anastrozole 1 MG Oral Tablet [Arimidex]
          </div>
        </text>
        <status value="completed"/>
        <patient>
          <reference value="Patient/smart-1157764"/>
        </patient>
        <authorizingPrescription>
          <reference value="MedicationOrder/smart-MedicationOrder-128"/>
        </authorizingPrescription>
        <quantity>
          <value value="30"/>
          <unit value="tablets"/>
          <system value="http://unitsofmeasure.org"/>
          <code value="{tablets}"/>
        </quantity>
        <daysSupply>
          <value value="30"/>
          <unit value="days"/>
          <system value="http://unitsofmeasure.org"/>
          <code value="d"/>
        </daysSupply>
        <medicationCodeableConcept>
          <coding>
            <system value="http://www.nlm.nih.gov/research/umls/rxnorm"/>
            <code value="151124"/>
            <display value="anastrozole 1 MG Oral Tablet [Arimidex]"/>
          </coding>
          <text value="anastrozole 1 MG Oral Tablet [Arimidex]"/>
        </medicationCodeableConcept>
        <whenHandedOver value="2008-11-29"/>
      </MedicationDispense>
    </resource>
    <request>
      <method value="PUT"/>
      <url value="MedicationDispense/smart-MedicationDispense-925"/>
    </request>
  </entry>
  <entry>
    <resource>
      <MedicationDispense>
        <meta>
          <tag>
            <system value="https://smarthealthit.org/tags"/>
            <code value="smart-8-2017"/>
          </tag>
        </meta>
        <id value="smart-MedicationDispense-920"/>
        <text>
          <status value="generated"/>
          <div xmlns="http://www.w3.org/1999/xhtml">
            Dispensed 30 tablets = 30 day supply of anastrozole 1 MG Oral Tablet [Arimidex]
          </div>
        </text>
        <status value="completed"/>
        <patient>
          <reference value="Patient/smart-1157764"/>
        </patient>
        <authorizingPrescription>
          <reference value="MedicationOrder/smart-MedicationOrder-128"/>
        </authorizingPrescription>
        <quantity>
          <value value="30"/>
          <unit value="tablets"/>
          <system value="http://unitsofmeasure.org"/>
          <code value="{tablets}"/>
        </quantity>
        <daysSupply>
          <value value="30"/>
          <unit value="days"/>
          <system value="http://unitsofmeasure.org"/>
          <code value="d"/>
        </daysSupply>
        <medicationCodeableConcept>
          <coding>
            <system value="http://www.nlm.nih.gov/research/umls/rxnorm"/>
            <code value="151124"/>
            <display value="anastrozole 1 MG Oral Tablet [Arimidex]"/>
          </coding>
          <text value="anastrozole 1 MG Oral Tablet [Arimidex]"/>
        </medicationCodeableConcept>
        <whenHandedOver value="2008-05-20"/>
      </MedicationDispense>
    </resource>
    <request>
      <method value="PUT"/>
      <url value="MedicationDispense/smart-MedicationDispense-920"/>
    </request>
  </entry>
  <entry>
    <resource>
      <MedicationDispense>
        <meta>
          <tag>
            <system value="https://smarthealthit.org/tags"/>
            <code value="smart-8-2017"/>
          </tag>
        </meta>
        <id value="smart-MedicationDispense-924"/>
        <text>
          <status value="generated"/>
          <div xmlns="http://www.w3.org/1999/xhtml">
            Dispensed 30 tablets = 30 day supply of anastrozole 1 MG Oral Tablet [Arimidex]
          </div>
        </text>
        <status value="completed"/>
        <patient>
          <reference value="Patient/smart-1157764"/>
        </patient>
        <authorizingPrescription>
          <reference value="MedicationOrder/smart-MedicationOrder-128"/>
        </authorizingPrescription>
        <quantity>
          <value value="30"/>
          <unit value="tablets"/>
          <system value="http://unitsofmeasure.org"/>
          <code value="{tablets}"/>
        </quantity>
        <daysSupply>
          <value value="30"/>
          <unit value="days"/>
          <system value="http://unitsofmeasure.org"/>
          <code value="d"/>
        </daysSupply>
        <medicationCodeableConcept>
          <coding>
            <system value="http://www.nlm.nih.gov/research/umls/rxnorm"/>
            <code value="151124"/>
            <display value="anastrozole 1 MG Oral Tablet [Arimidex]"/>
          </coding>
          <text value="anastrozole 1 MG Oral Tablet [Arimidex]"/>
        </medicationCodeableConcept>
        <whenHandedOver value="2008-10-31"/>
      </MedicationDispense>
    </resource>
    <request>
      <method value="PUT"/>
      <url value="MedicationDispense/smart-MedicationDispense-924"/>
    </request>
  </entry>
  <entry>
    <resource>
      <MedicationDispense>
        <meta>
          <tag>
            <system value="https://smarthealthit.org/tags"/>
            <code value="smart-8-2017"/>
          </tag>
        </meta>
        <id value="smart-MedicationDispense-927"/>
        <text>
          <status value="generated"/>
          <div xmlns="http://www.w3.org/1999/xhtml">
            Dispensed 30 tablets = 30 day supply of anastrozole 1 MG Oral Tablet [Arimidex]
          </div>
        </text>
        <status value="completed"/>
        <patient>
          <reference value="Patient/smart-1157764"/>
        </patient>
        <authorizingPrescription>
          <reference value="MedicationOrder/smart-MedicationOrder-128"/>
        </authorizingPrescription>
        <quantity>
          <value value="30"/>
          <unit value="tablets"/>
          <system value="http://unitsofmeasure.org"/>
          <code value="{tablets}"/>
        </quantity>
        <daysSupply>
          <value value="30"/>
          <unit value="days"/>
          <system value="http://unitsofmeasure.org"/>
          <code value="d"/>
        </daysSupply>
        <medicationCodeableConcept>
          <coding>
            <system value="http://www.nlm.nih.gov/research/umls/rxnorm"/>
            <code value="151124"/>
            <display value="anastrozole 1 MG Oral Tablet [Arimidex]"/>
          </coding>
          <text value="anastrozole 1 MG Oral Tablet [Arimidex]"/>
        </medicationCodeableConcept>
        <whenHandedOver value="2009-01-27"/>
      </MedicationDispense>
    </resource>
    <request>
      <method value="PUT"/>
      <url value="MedicationDispense/smart-MedicationDispense-927"/>
    </request>
  </entry>
  <entry>
    <resource>
      <MedicationDispense>
        <meta>
          <tag>
            <system value="https://smarthealthit.org/tags"/>
            <code value="smart-8-2017"/>
          </tag>
        </meta>
        <id value="smart-MedicationDispense-930"/>
        <text>
          <status value="generated"/>
          <div xmlns="http://www.w3.org/1999/xhtml">
            Dispensed 30 tablets = 30 day supply of anastrozole 1 MG Oral Tablet [Arimidex]
          </div>
        </text>
        <status value="completed"/>
        <patient>
          <reference value="Patient/smart-1157764"/>
        </patient>
        <authorizingPrescription>
          <reference value="MedicationOrder/smart-MedicationOrder-128"/>
        </authorizingPrescription>
        <quantity>
          <value value="30"/>
          <unit value="tablets"/>
          <system value="http://unitsofmeasure.org"/>
          <code value="{tablets}"/>
        </quantity>
        <daysSupply>
          <value value="30"/>
          <unit value="days"/>
          <system value="http://unitsofmeasure.org"/>
          <code value="d"/>
        </daysSupply>
        <medicationCodeableConcept>
          <coding>
            <system value="http://www.nlm.nih.gov/research/umls/rxnorm"/>
            <code value="151124"/>
            <display value="anastrozole 1 MG Oral Tablet [Arimidex]"/>
          </coding>
          <text value="anastrozole 1 MG Oral Tablet [Arimidex]"/>
        </medicationCodeableConcept>
        <whenHandedOver value="2009-04-26"/>
      </MedicationDispense>
    </resource>
    <request>
      <method value="PUT"/>
      <url value="MedicationDispense/smart-MedicationDispense-930"/>
    </request>
  </entry>
  <entry>
    <resource>
      <MedicationDispense>
        <meta>
          <tag>
            <system value="https://smarthealthit.org/tags"/>
            <code value="smart-8-2017"/>
          </tag>
        </meta>
        <id value="smart-MedicationDispense-912"/>
        <text>
          <status value="generated"/>
          <div xmlns="http://www.w3.org/1999/xhtml">
            Dispensed 30 tablets = 30 day supply of anastrozole 1 MG Oral Tablet [Arimidex]
          </div>
        </text>
        <status value="completed"/>
        <patient>
          <reference value="Patient/smart-1157764"/>
        </patient>
        <authorizingPrescription>
          <reference value="MedicationOrder/smart-MedicationOrder-128"/>
        </authorizingPrescription>
        <quantity>
          <value value="30"/>
          <unit value="tablets"/>
          <system value="http://unitsofmeasure.org"/>
          <code value="{tablets}"/>
        </quantity>
        <daysSupply>
          <value value="30"/>
          <unit value="days"/>
          <system value="http://unitsofmeasure.org"/>
          <code value="d"/>
        </daysSupply>
        <medicationCodeableConcept>
          <coding>
            <system value="http://www.nlm.nih.gov/research/umls/rxnorm"/>
            <code value="151124"/>
            <display value="anastrozole 1 MG Oral Tablet [Arimidex]"/>
          </coding>
          <text value="anastrozole 1 MG Oral Tablet [Arimidex]"/>
        </medicationCodeableConcept>
        <whenHandedOver value="2007-08-14"/>
      </MedicationDispense>
    </resource>
    <request>
      <method value="PUT"/>
      <url value="MedicationDispense/smart-MedicationDispense-912"/>
    </request>
  </entry>
  <entry>
    <resource>
      <MedicationDispense>
        <meta>
          <tag>
            <system value="https://smarthealthit.org/tags"/>
            <code value="smart-8-2017"/>
          </tag>
        </meta>
        <id value="smart-MedicationDispense-917"/>
        <text>
          <status value="generated"/>
          <div xmlns="http://www.w3.org/1999/xhtml">
            Dispensed 30 tablets = 30 day supply of anastrozole 1 MG Oral Tablet [Arimidex]
          </div>
        </text>
        <status value="completed"/>
        <patient>
          <reference value="Patient/smart-1157764"/>
        </patient>
        <authorizingPrescription>
          <reference value="MedicationOrder/smart-MedicationOrder-128"/>
        </authorizingPrescription>
        <quantity>
          <value value="30"/>
          <unit value="tablets"/>
          <system value="http://unitsofmeasure.org"/>
          <code value="{tablets}"/>
        </quantity>
        <daysSupply>
          <value value="30"/>
          <unit value="days"/>
          <system value="http://unitsofmeasure.org"/>
          <code value="d"/>
        </daysSupply>
        <medicationCodeableConcept>
          <coding>
            <system value="http://www.nlm.nih.gov/research/umls/rxnorm"/>
            <code value="151124"/>
            <display value="anastrozole 1 MG Oral Tablet [Arimidex]"/>
          </coding>
          <text value="anastrozole 1 MG Oral Tablet [Arimidex]"/>
        </medicationCodeableConcept>
        <whenHandedOver value="2008-02-21"/>
      </MedicationDispense>
    </resource>
    <request>
      <method value="PUT"/>
      <url value="MedicationDispense/smart-MedicationDispense-917"/>
    </request>
  </entry>
  <entry>
    <resource>
      <MedicationDispense>
        <meta>
          <tag>
            <system value="https://smarthealthit.org/tags"/>
            <code value="smart-8-2017"/>
          </tag>
        </meta>
        <id value="smart-MedicationDispense-931"/>
        <text>
          <status value="generated"/>
          <div xmlns="http://www.w3.org/1999/xhtml">
            Dispensed 30 tablets = 30 day supply of anastrozole 1 MG Oral Tablet [Arimidex]
          </div>
        </text>
        <status value="completed"/>
        <patient>
          <reference value="Patient/smart-1157764"/>
        </patient>
        <authorizingPrescription>
          <reference value="MedicationOrder/smart-MedicationOrder-128"/>
        </authorizingPrescription>
        <quantity>
          <value value="30"/>
          <unit value="tablets"/>
          <system value="http://unitsofmeasure.org"/>
          <code value="{tablets}"/>
        </quantity>
        <daysSupply>
          <value value="30"/>
          <unit value="days"/>
          <system value="http://unitsofmeasure.org"/>
          <code value="d"/>
        </daysSupply>
        <medicationCodeableConcept>
          <coding>
            <system value="http://www.nlm.nih.gov/research/umls/rxnorm"/>
            <code value="151124"/>
            <display value="anastrozole 1 MG Oral Tablet [Arimidex]"/>
          </coding>
          <text value="anastrozole 1 MG Oral Tablet [Arimidex]"/>
        </medicationCodeableConcept>
        <whenHandedOver value="2009-05-27"/>
      </MedicationDispense>
    </resource>
    <request>
      <method value="PUT"/>
      <url value="MedicationDispense/smart-MedicationDispense-931"/>
    </request>
  </entry>
  <entry>
    <resource>
      <MedicationDispense>
        <meta>
          <tag>
            <system value="https://smarthealthit.org/tags"/>
            <code value="smart-8-2017"/>
          </tag>
        </meta>
        <id value="smart-MedicationDispense-921"/>
        <text>
          <status value="generated"/>
          <div xmlns="http://www.w3.org/1999/xhtml">
            Dispensed 30 tablets = 30 day supply of anastrozole 1 MG Oral Tablet [Arimidex]
          </div>
        </text>
        <status value="completed"/>
        <patient>
          <reference value="Patient/smart-1157764"/>
        </patient>
        <authorizingPrescription>
          <reference value="MedicationOrder/smart-MedicationOrder-128"/>
        </authorizingPrescription>
        <quantity>
          <value value="30"/>
          <unit value="tablets"/>
          <system value="http://unitsofmeasure.org"/>
          <code value="{tablets}"/>
        </quantity>
        <daysSupply>
          <value value="30"/>
          <unit value="days"/>
          <system value="http://unitsofmeasure.org"/>
          <code value="d"/>
        </daysSupply>
        <medicationCodeableConcept>
          <coding>
            <system value="http://www.nlm.nih.gov/research/umls/rxnorm"/>
            <code value="151124"/>
            <display value="anastrozole 1 MG Oral Tablet [Arimidex]"/>
          </coding>
          <text value="anastrozole 1 MG Oral Tablet [Arimidex]"/>
        </medicationCodeableConcept>
        <whenHandedOver value="2008-06-20"/>
      </MedicationDispense>
    </resource>
    <request>
      <method value="PUT"/>
      <url value="MedicationDispense/smart-MedicationDispense-921"/>
    </request>
  </entry>
  <entry>
    <resource>
      <MedicationDispense>
        <meta>
          <tag>
            <system value="https://smarthealthit.org/tags"/>
            <code value="smart-8-2017"/>
          </tag>
        </meta>
        <id value="smart-MedicationDispense-911"/>
        <text>
          <status value="generated"/>
          <div xmlns="http://www.w3.org/1999/xhtml">
            Dispensed 30 tablets = 30 day supply of anastrozole 1 MG Oral Tablet [Arimidex]
          </div>
        </text>
        <status value="completed"/>
        <patient>
          <reference value="Patient/smart-1157764"/>
        </patient>
        <authorizingPrescription>
          <reference value="MedicationOrder/smart-MedicationOrder-128"/>
        </authorizingPrescription>
        <quantity>
          <value value="30"/>
          <unit value="tablets"/>
          <system value="http://unitsofmeasure.org"/>
          <code value="{tablets}"/>
        </quantity>
        <daysSupply>
          <value value="30"/>
          <unit value="days"/>
          <system value="http://unitsofmeasure.org"/>
          <code value="d"/>
        </daysSupply>
        <medicationCodeableConcept>
          <coding>
            <system value="http://www.nlm.nih.gov/research/umls/rxnorm"/>
            <code value="151124"/>
            <display value="anastrozole 1 MG Oral Tablet [Arimidex]"/>
          </coding>
          <text value="anastrozole 1 MG Oral Tablet [Arimidex]"/>
        </medicationCodeableConcept>
        <whenHandedOver value="2007-07-15"/>
      </MedicationDispense>
    </resource>
    <request>
      <method value="PUT"/>
      <url value="MedicationDispense/smart-MedicationDispense-911"/>
    </request>
  </entry>
  <entry>
    <resource>
      <MedicationDispense>
        <meta>
          <tag>
            <system value="https://smarthealthit.org/tags"/>
            <code value="smart-8-2017"/>
          </tag>
        </meta>
        <id value="smart-MedicationDispense-934"/>
        <text>
          <status value="generated"/>
          <div xmlns="http://www.w3.org/1999/xhtml">
            Dispensed 30 tablets = 30 day supply of anastrozole 1 MG Oral Tablet [Arimidex]
          </div>
        </text>
        <status value="completed"/>
        <patient>
          <reference value="Patient/smart-1157764"/>
        </patient>
        <authorizingPrescription>
          <reference value="MedicationOrder/smart-MedicationOrder-128"/>
        </authorizingPrescription>
        <quantity>
          <value value="30"/>
          <unit value="tablets"/>
          <system value="http://unitsofmeasure.org"/>
          <code value="{tablets}"/>
        </quantity>
        <daysSupply>
          <value value="30"/>
          <unit value="days"/>
          <system value="http://unitsofmeasure.org"/>
          <code value="d"/>
        </daysSupply>
        <medicationCodeableConcept>
          <coding>
            <system value="http://www.nlm.nih.gov/research/umls/rxnorm"/>
            <code value="151124"/>
            <display value="anastrozole 1 MG Oral Tablet [Arimidex]"/>
          </coding>
          <text value="anastrozole 1 MG Oral Tablet [Arimidex]"/>
        </medicationCodeableConcept>
        <whenHandedOver value="2009-08-25"/>
      </MedicationDispense>
    </resource>
    <request>
      <method value="PUT"/>
      <url value="MedicationDispense/smart-MedicationDispense-934"/>
    </request>
  </entry>
  <entry>
    <resource>
      <MedicationDispense>
        <meta>
          <tag>
            <system value="https://smarthealthit.org/tags"/>
            <code value="smart-8-2017"/>
          </tag>
        </meta>
        <id value="smart-MedicationDispense-915"/>
        <text>
          <status value="generated"/>
          <div xmlns="http://www.w3.org/1999/xhtml">
            Dispensed 30 tablets = 30 day supply of anastrozole 1 MG Oral Tablet [Arimidex]
          </div>
        </text>
        <status value="completed"/>
        <patient>
          <reference value="Patient/smart-1157764"/>
        </patient>
        <authorizingPrescription>
          <reference value="MedicationOrder/smart-MedicationOrder-128"/>
        </authorizingPrescription>
        <quantity>
          <value value="30"/>
          <unit value="tablets"/>
          <system value="http://unitsofmeasure.org"/>
          <code value="{tablets}"/>
        </quantity>
        <daysSupply>
          <value value="30"/>
          <unit value="days"/>
          <system value="http://unitsofmeasure.org"/>
          <code value="d"/>
        </daysSupply>
        <medicationCodeableConcept>
          <coding>
            <system value="http://www.nlm.nih.gov/research/umls/rxnorm"/>
            <code value="151124"/>
            <display value="anastrozole 1 MG Oral Tablet [Arimidex]"/>
          </coding>
          <text value="anastrozole 1 MG Oral Tablet [Arimidex]"/>
        </medicationCodeableConcept>
        <whenHandedOver value="2007-11-12"/>
      </MedicationDispense>
    </resource>
    <request>
      <method value="PUT"/>
      <url value="MedicationDispense/smart-MedicationDispense-915"/>
    </request>
  </entry>
  <entry>
    <resource>
      <MedicationDispense>
        <meta>
          <tag>
            <system value="https://smarthealthit.org/tags"/>
            <code value="smart-8-2017"/>
          </tag>
        </meta>
        <id value="smart-MedicationDispense-916"/>
        <text>
          <status value="generated"/>
          <div xmlns="http://www.w3.org/1999/xhtml">
            Dispensed 30 tablets = 30 day supply of anastrozole 1 MG Oral Tablet [Arimidex]
          </div>
        </text>
        <status value="completed"/>
        <patient>
          <reference value="Patient/smart-1157764"/>
        </patient>
        <authorizingPrescription>
          <reference value="MedicationOrder/smart-MedicationOrder-128"/>
        </authorizingPrescription>
        <quantity>
          <value value="30"/>
          <unit value="tablets"/>
          <system value="http://unitsofmeasure.org"/>
          <code value="{tablets}"/>
        </quantity>
        <daysSupply>
          <value value="30"/>
          <unit value="days"/>
          <system value="http://unitsofmeasure.org"/>
          <code value="d"/>
        </daysSupply>
        <medicationCodeableConcept>
          <coding>
            <system value="http://www.nlm.nih.gov/research/umls/rxnorm"/>
            <code value="151124"/>
            <display value="anastrozole 1 MG Oral Tablet [Arimidex]"/>
          </coding>
          <text value="anastrozole 1 MG Oral Tablet [Arimidex]"/>
        </medicationCodeableConcept>
        <whenHandedOver value="2007-12-12"/>
      </MedicationDispense>
    </resource>
    <request>
      <method value="PUT"/>
      <url value="MedicationDispense/smart-MedicationDispense-916"/>
    </request>
  </entry>
  <entry>
    <resource>
      <MedicationDispense>
        <meta>
          <tag>
            <system value="https://smarthealthit.org/tags"/>
            <code value="smart-8-2017"/>
          </tag>
        </meta>
        <id value="smart-MedicationDispense-926"/>
        <text>
          <status value="generated"/>
          <div xmlns="http://www.w3.org/1999/xhtml">
            Dispensed 30 tablets = 30 day supply of anastrozole 1 MG Oral Tablet [Arimidex]
          </div>
        </text>
        <status value="completed"/>
        <patient>
          <reference value="Patient/smart-1157764"/>
        </patient>
        <authorizingPrescription>
          <reference value="MedicationOrder/smart-MedicationOrder-128"/>
        </authorizingPrescription>
        <quantity>
          <value value="30"/>
          <unit value="tablets"/>
          <system value="http://unitsofmeasure.org"/>
          <code value="{tablets}"/>
        </quantity>
        <daysSupply>
          <value value="30"/>
          <unit value="days"/>
          <system value="http://unitsofmeasure.org"/>
          <code value="d"/>
        </daysSupply>
        <medicationCodeableConcept>
          <coding>
            <system value="http://www.nlm.nih.gov/research/umls/rxnorm"/>
            <code value="151124"/>
            <display value="anastrozole 1 MG Oral Tablet [Arimidex]"/>
          </coding>
          <text value="anastrozole 1 MG Oral Tablet [Arimidex]"/>
        </medicationCodeableConcept>
        <whenHandedOver value="2008-12-28"/>
      </MedicationDispense>
    </resource>
    <request>
      <method value="PUT"/>
      <url value="MedicationDispense/smart-MedicationDispense-926"/>
    </request>
  </entry>
  <entry>
    <resource>
      <MedicationDispense>
        <meta>
          <tag>
            <system value="https://smarthealthit.org/tags"/>
            <code value="smart-8-2017"/>
          </tag>
        </meta>
        <id value="smart-MedicationDispense-933"/>
        <text>
          <status value="generated"/>
          <div xmlns="http://www.w3.org/1999/xhtml">
            Dispensed 30 tablets = 30 day supply of anastrozole 1 MG Oral Tablet [Arimidex]
          </div>
        </text>
        <status value="completed"/>
        <patient>
          <reference value="Patient/smart-1157764"/>
        </patient>
        <authorizingPrescription>
          <reference value="MedicationOrder/smart-MedicationOrder-128"/>
        </authorizingPrescription>
        <quantity>
          <value value="30"/>
          <unit value="tablets"/>
          <system value="http://unitsofmeasure.org"/>
          <code value="{tablets}"/>
        </quantity>
        <daysSupply>
          <value value="30"/>
          <unit value="days"/>
          <system value="http://unitsofmeasure.org"/>
          <code value="d"/>
        </daysSupply>
        <medicationCodeableConcept>
          <coding>
            <system value="http://www.nlm.nih.gov/research/umls/rxnorm"/>
            <code value="151124"/>
            <display value="anastrozole 1 MG Oral Tablet [Arimidex]"/>
          </coding>
          <text value="anastrozole 1 MG Oral Tablet [Arimidex]"/>
        </medicationCodeableConcept>
        <whenHandedOver value="2009-07-26"/>
      </MedicationDispense>
    </resource>
    <request>
      <method value="PUT"/>
      <url value="MedicationDispense/smart-MedicationDispense-933"/>
    </request>
  </entry>
  <entry>
    <resource>
      <MedicationDispense>
        <meta>
          <tag>
            <system value="https://smarthealthit.org/tags"/>
            <code value="smart-8-2017"/>
          </tag>
        </meta>
        <id value="smart-MedicationDispense-923"/>
        <text>
          <status value="generated"/>
          <div xmlns="http://www.w3.org/1999/xhtml">
            Dispensed 30 tablets = 30 day supply of anastrozole 1 MG Oral Tablet [Arimidex]
          </div>
        </text>
        <status value="completed"/>
        <patient>
          <reference value="Patient/smart-1157764"/>
        </patient>
        <authorizingPrescription>
          <reference value="MedicationOrder/smart-MedicationOrder-128"/>
        </authorizingPrescription>
        <quantity>
          <value value="30"/>
          <unit value="tablets"/>
          <system value="http://unitsofmeasure.org"/>
          <code value="{tablets}"/>
        </quantity>
        <daysSupply>
          <value value="30"/>
          <unit value="days"/>
          <system value="http://unitsofmeasure.org"/>
          <code value="d"/>
        </daysSupply>
        <medicationCodeableConcept>
          <coding>
            <system value="http://www.nlm.nih.gov/research/umls/rxnorm"/>
            <code value="151124"/>
            <display value="anastrozole 1 MG Oral Tablet [Arimidex]"/>
          </coding>
          <text value="anastrozole 1 MG Oral Tablet [Arimidex]"/>
        </medicationCodeableConcept>
        <whenHandedOver value="2008-09-30"/>
      </MedicationDispense>
    </resource>
    <request>
      <method value="PUT"/>
      <url value="MedicationDispense/smart-MedicationDispense-923"/>
    </request>
  </entry>
  <entry>
    <resource>
      <MedicationDispense>
        <meta>
          <tag>
            <system value="https://smarthealthit.org/tags"/>
            <code value="smart-8-2017"/>
          </tag>
        </meta>
        <id value="smart-MedicationDispense-919"/>
        <text>
          <status value="generated"/>
          <div xmlns="http://www.w3.org/1999/xhtml">
            Dispensed 30 tablets = 30 day supply of anastrozole 1 MG Oral Tablet [Arimidex]
          </div>
        </text>
        <status value="completed"/>
        <patient>
          <reference value="Patient/smart-1157764"/>
        </patient>
        <authorizingPrescription>
          <reference value="MedicationOrder/smart-MedicationOrder-128"/>
        </authorizingPrescription>
        <quantity>
          <value value="30"/>
          <unit value="tablets"/>
          <system value="http://unitsofmeasure.org"/>
          <code value="{tablets}"/>
        </quantity>
        <daysSupply>
          <value value="30"/>
          <unit value="days"/>
          <system value="http://unitsofmeasure.org"/>
          <code value="d"/>
        </daysSupply>
        <medicationCodeableConcept>
          <coding>
            <system value="http://www.nlm.nih.gov/research/umls/rxnorm"/>
            <code value="151124"/>
            <display value="anastrozole 1 MG Oral Tablet [Arimidex]"/>
          </coding>
          <text value="anastrozole 1 MG Oral Tablet [Arimidex]"/>
        </medicationCodeableConcept>
        <whenHandedOver value="2008-04-21"/>
      </MedicationDispense>
    </resource>
    <request>
      <method value="PUT"/>
      <url value="MedicationDispense/smart-MedicationDispense-919"/>
    </request>
  </entry>
  <entry>
    <resource>
      <MedicationDispense>
        <meta>
          <tag>
            <system value="https://smarthealthit.org/tags"/>
            <code value="smart-8-2017"/>
          </tag>
        </meta>
        <id value="smart-MedicationDispense-918"/>
        <text>
          <status value="generated"/>
          <div xmlns="http://www.w3.org/1999/xhtml">
            Dispensed 30 tablets = 30 day supply of anastrozole 1 MG Oral Tablet [Arimidex]
          </div>
        </text>
        <status value="completed"/>
        <patient>
          <reference value="Patient/smart-1157764"/>
        </patient>
        <authorizingPrescription>
          <reference value="MedicationOrder/smart-MedicationOrder-128"/>
        </authorizingPrescription>
        <quantity>
          <value value="30"/>
          <unit value="tablets"/>
          <system value="http://unitsofmeasure.org"/>
          <code value="{tablets}"/>
        </quantity>
        <daysSupply>
          <value value="30"/>
          <unit value="days"/>
          <system value="http://unitsofmeasure.org"/>
          <code value="d"/>
        </daysSupply>
        <medicationCodeableConcept>
          <coding>
            <system value="http://www.nlm.nih.gov/research/umls/rxnorm"/>
            <code value="151124"/>
            <display value="anastrozole 1 MG Oral Tablet [Arimidex]"/>
          </coding>
          <text value="anastrozole 1 MG Oral Tablet [Arimidex]"/>
        </medicationCodeableConcept>
        <whenHandedOver value="2008-03-21"/>
      </MedicationDispense>
    </resource>
    <request>
      <method value="PUT"/>
      <url value="MedicationDispense/smart-MedicationDispense-918"/>
    </request>
  </entry>
  <entry>
    <resource>
      <MedicationDispense>
        <meta>
          <tag>
            <system value="https://smarthealthit.org/tags"/>
            <code value="smart-8-2017"/>
          </tag>
        </meta>
        <id value="smart-MedicationDispense-932"/>
        <text>
          <status value="generated"/>
          <div xmlns="http://www.w3.org/1999/xhtml">
            Dispensed 30 tablets = 30 day supply of anastrozole 1 MG Oral Tablet [Arimidex]
          </div>
        </text>
        <status value="completed"/>
        <patient>
          <reference value="Patient/smart-1157764"/>
        </patient>
        <authorizingPrescription>
          <reference value="MedicationOrder/smart-MedicationOrder-128"/>
        </authorizingPrescription>
        <quantity>
          <value value="30"/>
          <unit value="tablets"/>
          <system value="http://unitsofmeasure.org"/>
          <code value="{tablets}"/>
        </quantity>
        <daysSupply>
          <value value="30"/>
          <unit value="days"/>
          <system value="http://unitsofmeasure.org"/>
          <code value="d"/>
        </daysSupply>
        <medicationCodeableConcept>
          <coding>
            <system value="http://www.nlm.nih.gov/research/umls/rxnorm"/>
            <code value="151124"/>
            <display value="anastrozole 1 MG Oral Tablet [Arimidex]"/>
          </coding>
          <text value="anastrozole 1 MG Oral Tablet [Arimidex]"/>
        </medicationCodeableConcept>
        <whenHandedOver value="2009-06-26"/>
      </MedicationDispense>
    </resource>
    <request>
      <method value="PUT"/>
      <url value="MedicationDispense/smart-MedicationDispense-932"/>
    </request>
  </entry>
  <entry>
    <resource>
      <MedicationDispense>
        <meta>
          <tag>
            <system value="https://smarthealthit.org/tags"/>
            <code value="smart-8-2017"/>
          </tag>
        </meta>
        <id value="smart-MedicationDispense-922"/>
        <text>
          <status value="generated"/>
          <div xmlns="http://www.w3.org/1999/xhtml">
            Dispensed 30 tablets = 30 day supply of anastrozole 1 MG Oral Tablet [Arimidex]
          </div>
        </text>
        <status value="completed"/>
        <patient>
          <reference value="Patient/smart-1157764"/>
        </patient>
        <authorizingPrescription>
          <reference value="MedicationOrder/smart-MedicationOrder-128"/>
        </authorizingPrescription>
        <quantity>
          <value value="30"/>
          <unit value="tablets"/>
          <system value="http://unitsofmeasure.org"/>
          <code value="{tablets}"/>
        </quantity>
        <daysSupply>
          <value value="30"/>
          <unit value="days"/>
          <system value="http://unitsofmeasure.org"/>
          <code value="d"/>
        </daysSupply>
        <medicationCodeableConcept>
          <coding>
            <system value="http://www.nlm.nih.gov/research/umls/rxnorm"/>
            <code value="151124"/>
            <display value="anastrozole 1 MG Oral Tablet [Arimidex]"/>
          </coding>
          <text value="anastrozole 1 MG Oral Tablet [Arimidex]"/>
        </medicationCodeableConcept>
        <whenHandedOver value="2008-07-19"/>
      </MedicationDispense>
    </resource>
    <request>
      <method value="PUT"/>
      <url value="MedicationDispense/smart-MedicationDispense-922"/>
    </request>
  </entry>
  <entry>
    <resource>
      <MedicationDispense>
        <meta>
          <tag>
            <system value="https://smarthealthit.org/tags"/>
            <code value="smart-8-2017"/>
          </tag>
        </meta>
        <id value="smart-MedicationDispense-910"/>
        <text>
          <status value="generated"/>
          <div xmlns="http://www.w3.org/1999/xhtml">
            Dispensed 30 tablets = 30 day supply of anastrozole 1 MG Oral Tablet [Arimidex]
          </div>
        </text>
        <status value="completed"/>
        <patient>
          <reference value="Patient/smart-1157764"/>
        </patient>
        <authorizingPrescription>
          <reference value="MedicationOrder/smart-MedicationOrder-128"/>
        </authorizingPrescription>
        <quantity>
          <value value="30"/>
          <unit value="tablets"/>
          <system value="http://unitsofmeasure.org"/>
          <code value="{tablets}"/>
        </quantity>
        <daysSupply>
          <value value="30"/>
          <unit value="days"/>
          <system value="http://unitsofmeasure.org"/>
          <code value="d"/>
        </daysSupply>
        <medicationCodeableConcept>
          <coding>
            <system value="http://www.nlm.nih.gov/research/umls/rxnorm"/>
            <code value="151124"/>
            <display value="anastrozole 1 MG Oral Tablet [Arimidex]"/>
          </coding>
          <text value="anastrozole 1 MG Oral Tablet [Arimidex]"/>
        </medicationCodeableConcept>
        <whenHandedOver value="2007-06-16"/>
      </MedicationDispense>
    </resource>
    <request>
      <method value="PUT"/>
      <url value="MedicationDispense/smart-MedicationDispense-910"/>
    </request>
  </entry>
  <entry>
    <resource>
      <MedicationDispense>
        <meta>
          <tag>
            <system value="https://smarthealthit.org/tags"/>
            <code value="smart-8-2017"/>
          </tag>
        </meta>
        <id value="smart-MedicationDispense-914"/>
        <text>
          <status value="generated"/>
          <div xmlns="http://www.w3.org/1999/xhtml">
            Dispensed 30 tablets = 30 day supply of anastrozole 1 MG Oral Tablet [Arimidex]
          </div>
        </text>
        <status value="completed"/>
        <patient>
          <reference value="Patient/smart-1157764"/>
        </patient>
        <authorizingPrescription>
          <reference value="MedicationOrder/smart-MedicationOrder-128"/>
        </authorizingPrescription>
        <quantity>
          <value value="30"/>
          <unit value="tablets"/>
          <system value="http://unitsofmeasure.org"/>
          <code value="{tablets}"/>
        </quantity>
        <daysSupply>
          <value value="30"/>
          <unit value="days"/>
          <system value="http://unitsofmeasure.org"/>
          <code value="d"/>
        </daysSupply>
        <medicationCodeableConcept>
          <coding>
            <system value="http://www.nlm.nih.gov/research/umls/rxnorm"/>
            <code value="151124"/>
            <display value="anastrozole 1 MG Oral Tablet [Arimidex]"/>
          </coding>
          <text value="anastrozole 1 MG Oral Tablet [Arimidex]"/>
        </medicationCodeableConcept>
        <whenHandedOver value="2007-10-12"/>
      </MedicationDispense>
    </resource>
    <request>
      <method value="PUT"/>
      <url value="MedicationDispense/smart-MedicationDispense-914"/>
    </request>
  </entry>
  <entry>
    <resource>
      <MedicationDispense>
        <meta>
          <tag>
            <system value="https://smarthealthit.org/tags"/>
            <code value="smart-8-2017"/>
          </tag>
        </meta>
        <id value="smart-MedicationDispense-929"/>
        <text>
          <status value="generated"/>
          <div xmlns="http://www.w3.org/1999/xhtml">
            Dispensed 30 tablets = 30 day supply of anastrozole 1 MG Oral Tablet [Arimidex]
          </div>
        </text>
        <status value="completed"/>
        <patient>
          <reference value="Patient/smart-1157764"/>
        </patient>
        <authorizingPrescription>
          <reference value="MedicationOrder/smart-MedicationOrder-128"/>
        </authorizingPrescription>
        <quantity>
          <value value="30"/>
          <unit value="tablets"/>
          <system value="http://unitsofmeasure.org"/>
          <code value="{tablets}"/>
        </quantity>
        <daysSupply>
          <value value="30"/>
          <unit value="days"/>
          <system value="http://unitsofmeasure.org"/>
          <code value="d"/>
        </daysSupply>
        <medicationCodeableConcept>
          <coding>
            <system value="http://www.nlm.nih.gov/research/umls/rxnorm"/>
            <code value="151124"/>
            <display value="anastrozole 1 MG Oral Tablet [Arimidex]"/>
          </coding>
          <text value="anastrozole 1 MG Oral Tablet [Arimidex]"/>
        </medicationCodeableConcept>
        <whenHandedOver value="2009-03-27"/>
      </MedicationDispense>
    </resource>
    <request>
      <method value="PUT"/>
      <url value="MedicationDispense/smart-MedicationDispense-929"/>
    </request>
  </entry>
  <entry>
    <resource>
      <MedicationDispense>
        <meta>
          <tag>
            <system value="https://smarthealthit.org/tags"/>
            <code value="smart-8-2017"/>
          </tag>
        </meta>
        <id value="smart-MedicationDispense-935"/>
        <text>
          <status value="generated"/>
          <div xmlns="http://www.w3.org/1999/xhtml">
            Dispensed 30 tablets = 30 day supply of anastrozole 1 MG Oral Tablet [Arimidex]
          </div>
        </text>
        <status value="completed"/>
        <patient>
          <reference value="Patient/smart-1157764"/>
        </patient>
        <authorizingPrescription>
          <reference value="MedicationOrder/smart-MedicationOrder-128"/>
        </authorizingPrescription>
        <quantity>
          <value value="30"/>
          <unit value="tablets"/>
          <system value="http://unitsofmeasure.org"/>
          <code value="{tablets}"/>
        </quantity>
        <daysSupply>
          <value value="30"/>
          <unit value="days"/>
          <system value="http://unitsofmeasure.org"/>
          <code value="d"/>
        </daysSupply>
        <medicationCodeableConcept>
          <coding>
            <system value="http://www.nlm.nih.gov/research/umls/rxnorm"/>
            <code value="151124"/>
            <display value="anastrozole 1 MG Oral Tablet [Arimidex]"/>
          </coding>
          <text value="anastrozole 1 MG Oral Tablet [Arimidex]"/>
        </medicationCodeableConcept>
        <whenHandedOver value="2009-09-24"/>
      </MedicationDispense>
    </resource>
    <request>
      <method value="PUT"/>
      <url value="MedicationDispense/smart-MedicationDispense-935"/>
    </request>
  </entry>
  <entry>
    <resource>
      <MedicationOrder>
        <meta>
          <tag>
            <system value="https://smarthealthit.org/tags"/>
            <code value="smart-8-2017"/>
          </tag>
        </meta>
        <id value="smart-MedicationOrder-129"/>
        <text>
          <status value="generated"/>
          <div xmlns="http://www.w3.org/1999/xhtml">
            {4 (Risedronate 35 MG Oral Tablet [Actonel]) } Pack [Actonel 35] (rxnorm: 877300)
          </div>
        </text>
        <status value="active"/>
        <patient>
          <reference value="Patient/smart-1157764"/>
        </patient>
        <medicationCodeableConcept>
          <coding>
            <system value="http://www.nlm.nih.gov/research/umls/rxnorm"/>
            <code value="877300"/>
            <display value="{4 (Risedronate 35 MG Oral Tablet [Actonel]) } Pack [Actonel 35]"/>
          </coding>
          <text value="{4 (Risedronate 35 MG Oral Tablet [Actonel]) } Pack [Actonel 35]"/>
        </medicationCodeableConcept>
        <dosageInstruction>
          <timing>
            <repeat>
              <boundsPeriod>
                <start value="2003-11-02"/>
              </boundsPeriod>
              <frequency value="1"/>
              <period value="1"/>
              <periodUnits value="wk"/>
            </repeat>
          </timing>
          <doseQuantity>
            <value value="1"/>
            <unit value="{tablet}"/>
            <system value="http://unitsofmeasure.org"/>
            <code value="{tablet}"/>
          </doseQuantity>
          <text value="1 weekly"/>
        </dosageInstruction>
        <dispenseRequest>
          <numberOfRepeatsAllowed value="1"/>
          <quantity>
            <value value="4"/>
            <unit value="{tablet}"/>
            <system value="http://unitsofmeasure.org"/>
            <code value="{tablet}"/>
          </quantity>
          <expectedSupplyDuration>
            <value value="30"/>
            <unit value="days"/>
            <system value="http://unitsofmeasure.org"/>
            <code value="d"/>
          </expectedSupplyDuration>
        </dispenseRequest>
      </MedicationOrder>
    </resource>
    <request>
      <method value="PUT"/>
      <url value="MedicationOrder/smart-MedicationOrder-129"/>
    </request>
  </entry>
  <entry>
    <resource>
      <MedicationDispense>
        <meta>
          <tag>
            <system value="https://smarthealthit.org/tags"/>
            <code value="smart-8-2017"/>
          </tag>
        </meta>
        <id value="smart-MedicationDispense-898"/>
        <text>
          <status value="generated"/>
          <div xmlns="http://www.w3.org/1999/xhtml">
            Dispensed 4 tablets = 30 day supply of {4 (Risedronate 35 MG Oral Tablet [Actonel]) } Pack [Actonel 35]
          </div>
        </text>
        <status value="completed"/>
        <patient>
          <reference value="Patient/smart-1157764"/>
        </patient>
        <authorizingPrescription>
          <reference value="MedicationOrder/smart-MedicationOrder-129"/>
        </authorizingPrescription>
        <quantity>
          <value value="4"/>
          <unit value="tablets"/>
          <system value="http://unitsofmeasure.org"/>
          <code value="{tablets}"/>
        </quantity>
        <daysSupply>
          <value value="30"/>
          <unit value="days"/>
          <system value="http://unitsofmeasure.org"/>
          <code value="d"/>
        </daysSupply>
        <medicationCodeableConcept>
          <coding>
            <system value="http://www.nlm.nih.gov/research/umls/rxnorm"/>
            <code value="877300"/>
            <display value="{4 (Risedronate 35 MG Oral Tablet [Actonel]) } Pack [Actonel 35]"/>
          </coding>
          <text value="{4 (Risedronate 35 MG Oral Tablet [Actonel]) } Pack [Actonel 35]"/>
        </medicationCodeableConcept>
        <whenHandedOver value="2008-10-14"/>
      </MedicationDispense>
    </resource>
    <request>
      <method value="PUT"/>
      <url value="MedicationDispense/smart-MedicationDispense-898"/>
    </request>
  </entry>
  <entry>
    <resource>
      <MedicationDispense>
        <meta>
          <tag>
            <system value="https://smarthealthit.org/tags"/>
            <code value="smart-8-2017"/>
          </tag>
        </meta>
        <id value="smart-MedicationDispense-889"/>
        <text>
          <status value="generated"/>
          <div xmlns="http://www.w3.org/1999/xhtml">
            Dispensed 4 tablets = 30 day supply of {4 (Risedronate 35 MG Oral Tablet [Actonel]) } Pack [Actonel 35]
          </div>
        </text>
        <status value="completed"/>
        <patient>
          <reference value="Patient/smart-1157764"/>
        </patient>
        <authorizingPrescription>
          <reference value="MedicationOrder/smart-MedicationOrder-129"/>
        </authorizingPrescription>
        <quantity>
          <value value="4"/>
          <unit value="tablets"/>
          <system value="http://unitsofmeasure.org"/>
          <code value="{tablets}"/>
        </quantity>
        <daysSupply>
          <value value="30"/>
          <unit value="days"/>
          <system value="http://unitsofmeasure.org"/>
          <code value="d"/>
        </daysSupply>
        <medicationCodeableConcept>
          <coding>
            <system value="http://www.nlm.nih.gov/research/umls/rxnorm"/>
            <code value="877300"/>
            <display value="{4 (Risedronate 35 MG Oral Tablet [Actonel]) } Pack [Actonel 35]"/>
          </coding>
          <text value="{4 (Risedronate 35 MG Oral Tablet [Actonel]) } Pack [Actonel 35]"/>
        </medicationCodeableConcept>
        <whenHandedOver value="2008-02-01"/>
      </MedicationDispense>
    </resource>
    <request>
      <method value="PUT"/>
      <url value="MedicationDispense/smart-MedicationDispense-889"/>
    </request>
  </entry>
  <entry>
    <resource>
      <MedicationDispense>
        <meta>
          <tag>
            <system value="https://smarthealthit.org/tags"/>
            <code value="smart-8-2017"/>
          </tag>
        </meta>
        <id value="smart-MedicationDispense-908"/>
        <text>
          <status value="generated"/>
          <div xmlns="http://www.w3.org/1999/xhtml">
            Dispensed 4 tablets = 30 day supply of {4 (Risedronate 35 MG Oral Tablet [Actonel]) } Pack [Actonel 35]
          </div>
        </text>
        <status value="completed"/>
        <patient>
          <reference value="Patient/smart-1157764"/>
        </patient>
        <authorizingPrescription>
          <reference value="MedicationOrder/smart-MedicationOrder-129"/>
        </authorizingPrescription>
        <quantity>
          <value value="4"/>
          <unit value="tablets"/>
          <system value="http://unitsofmeasure.org"/>
          <code value="{tablets}"/>
        </quantity>
        <daysSupply>
          <value value="30"/>
          <unit value="days"/>
          <system value="http://unitsofmeasure.org"/>
          <code value="d"/>
        </daysSupply>
        <medicationCodeableConcept>
          <coding>
            <system value="http://www.nlm.nih.gov/research/umls/rxnorm"/>
            <code value="877300"/>
            <display value="{4 (Risedronate 35 MG Oral Tablet [Actonel]) } Pack [Actonel 35]"/>
          </coding>
          <text value="{4 (Risedronate 35 MG Oral Tablet [Actonel]) } Pack [Actonel 35]"/>
        </medicationCodeableConcept>
        <whenHandedOver value="2009-08-18"/>
      </MedicationDispense>
    </resource>
    <request>
      <method value="PUT"/>
      <url value="MedicationDispense/smart-MedicationDispense-908"/>
    </request>
  </entry>
  <entry>
    <resource>
      <MedicationDispense>
        <meta>
          <tag>
            <system value="https://smarthealthit.org/tags"/>
            <code value="smart-8-2017"/>
          </tag>
        </meta>
        <id value="smart-MedicationDispense-890"/>
        <text>
          <status value="generated"/>
          <div xmlns="http://www.w3.org/1999/xhtml">
            Dispensed 4 tablets = 30 day supply of {4 (Risedronate 35 MG Oral Tablet [Actonel]) } Pack [Actonel 35]
          </div>
        </text>
        <status value="completed"/>
        <patient>
          <reference value="Patient/smart-1157764"/>
        </patient>
        <authorizingPrescription>
          <reference value="MedicationOrder/smart-MedicationOrder-129"/>
        </authorizingPrescription>
        <quantity>
          <value value="4"/>
          <unit value="tablets"/>
          <system value="http://unitsofmeasure.org"/>
          <code value="{tablets}"/>
        </quantity>
        <daysSupply>
          <value value="30"/>
          <unit value="days"/>
          <system value="http://unitsofmeasure.org"/>
          <code value="d"/>
        </daysSupply>
        <medicationCodeableConcept>
          <coding>
            <system value="http://www.nlm.nih.gov/research/umls/rxnorm"/>
            <code value="877300"/>
            <display value="{4 (Risedronate 35 MG Oral Tablet [Actonel]) } Pack [Actonel 35]"/>
          </coding>
          <text value="{4 (Risedronate 35 MG Oral Tablet [Actonel]) } Pack [Actonel 35]"/>
        </medicationCodeableConcept>
        <whenHandedOver value="2008-02-28"/>
      </MedicationDispense>
    </resource>
    <request>
      <method value="PUT"/>
      <url value="MedicationDispense/smart-MedicationDispense-890"/>
    </request>
  </entry>
  <entry>
    <resource>
      <MedicationDispense>
        <meta>
          <tag>
            <system value="https://smarthealthit.org/tags"/>
            <code value="smart-8-2017"/>
          </tag>
        </meta>
        <id value="smart-MedicationDispense-891"/>
        <text>
          <status value="generated"/>
          <div xmlns="http://www.w3.org/1999/xhtml">
            Dispensed 4 tablets = 30 day supply of {4 (Risedronate 35 MG Oral Tablet [Actonel]) } Pack [Actonel 35]
          </div>
        </text>
        <status value="completed"/>
        <patient>
          <reference value="Patient/smart-1157764"/>
        </patient>
        <authorizingPrescription>
          <reference value="MedicationOrder/smart-MedicationOrder-129"/>
        </authorizingPrescription>
        <quantity>
          <value value="4"/>
          <unit value="tablets"/>
          <system value="http://unitsofmeasure.org"/>
          <code value="{tablets}"/>
        </quantity>
        <daysSupply>
          <value value="30"/>
          <unit value="days"/>
          <system value="http://unitsofmeasure.org"/>
          <code value="d"/>
        </daysSupply>
        <medicationCodeableConcept>
          <coding>
            <system value="http://www.nlm.nih.gov/research/umls/rxnorm"/>
            <code value="877300"/>
            <display value="{4 (Risedronate 35 MG Oral Tablet [Actonel]) } Pack [Actonel 35]"/>
          </coding>
          <text value="{4 (Risedronate 35 MG Oral Tablet [Actonel]) } Pack [Actonel 35]"/>
        </medicationCodeableConcept>
        <whenHandedOver value="2008-03-28"/>
      </MedicationDispense>
    </resource>
    <request>
      <method value="PUT"/>
      <url value="MedicationDispense/smart-MedicationDispense-891"/>
    </request>
  </entry>
  <entry>
    <resource>
      <MedicationDispense>
        <meta>
          <tag>
            <system value="https://smarthealthit.org/tags"/>
            <code value="smart-8-2017"/>
          </tag>
        </meta>
        <id value="smart-MedicationDispense-902"/>
        <text>
          <status value="generated"/>
          <div xmlns="http://www.w3.org/1999/xhtml">
            Dispensed 4 tablets = 30 day supply of {4 (Risedronate 35 MG Oral Tablet [Actonel]) } Pack [Actonel 35]
          </div>
        </text>
        <status value="completed"/>
        <patient>
          <reference value="Patient/smart-1157764"/>
        </patient>
        <authorizingPrescription>
          <reference value="MedicationOrder/smart-MedicationOrder-129"/>
        </authorizingPrescription>
        <quantity>
          <value value="4"/>
          <unit value="tablets"/>
          <system value="http://unitsofmeasure.org"/>
          <code value="{tablets}"/>
        </quantity>
        <daysSupply>
          <value value="30"/>
          <unit value="days"/>
          <system value="http://unitsofmeasure.org"/>
          <code value="d"/>
        </daysSupply>
        <medicationCodeableConcept>
          <coding>
            <system value="http://www.nlm.nih.gov/research/umls/rxnorm"/>
            <code value="877300"/>
            <display value="{4 (Risedronate 35 MG Oral Tablet [Actonel]) } Pack [Actonel 35]"/>
          </coding>
          <text value="{4 (Risedronate 35 MG Oral Tablet [Actonel]) } Pack [Actonel 35]"/>
        </medicationCodeableConcept>
        <whenHandedOver value="2009-01-30"/>
      </MedicationDispense>
    </resource>
    <request>
      <method value="PUT"/>
      <url value="MedicationDispense/smart-MedicationDispense-902"/>
    </request>
  </entry>
  <entry>
    <resource>
      <MedicationDispense>
        <meta>
          <tag>
            <system value="https://smarthealthit.org/tags"/>
            <code value="smart-8-2017"/>
          </tag>
        </meta>
        <id value="smart-MedicationDispense-899"/>
        <text>
          <status value="generated"/>
          <div xmlns="http://www.w3.org/1999/xhtml">
            Dispensed 4 tablets = 30 day supply of {4 (Risedronate 35 MG Oral Tablet [Actonel]) } Pack [Actonel 35]
          </div>
        </text>
        <status value="completed"/>
        <patient>
          <reference value="Patient/smart-1157764"/>
        </patient>
        <authorizingPrescription>
          <reference value="MedicationOrder/smart-MedicationOrder-129"/>
        </authorizingPrescription>
        <quantity>
          <value value="4"/>
          <unit value="tablets"/>
          <system value="http://unitsofmeasure.org"/>
          <code value="{tablets}"/>
        </quantity>
        <daysSupply>
          <value value="30"/>
          <unit value="days"/>
          <system value="http://unitsofmeasure.org"/>
          <code value="d"/>
        </daysSupply>
        <medicationCodeableConcept>
          <coding>
            <system value="http://www.nlm.nih.gov/research/umls/rxnorm"/>
            <code value="877300"/>
            <display value="{4 (Risedronate 35 MG Oral Tablet [Actonel]) } Pack [Actonel 35]"/>
          </coding>
          <text value="{4 (Risedronate 35 MG Oral Tablet [Actonel]) } Pack [Actonel 35]"/>
        </medicationCodeableConcept>
        <whenHandedOver value="2008-11-10"/>
      </MedicationDispense>
    </resource>
    <request>
      <method value="PUT"/>
      <url value="MedicationDispense/smart-MedicationDispense-899"/>
    </request>
  </entry>
  <entry>
    <resource>
      <MedicationDispense>
        <meta>
          <tag>
            <system value="https://smarthealthit.org/tags"/>
            <code value="smart-8-2017"/>
          </tag>
        </meta>
        <id value="smart-MedicationDispense-884"/>
        <text>
          <status value="generated"/>
          <div xmlns="http://www.w3.org/1999/xhtml">
            Dispensed 4 tablets = 30 day supply of {4 (Risedronate 35 MG Oral Tablet [Actonel]) } Pack [Actonel 35]
          </div>
        </text>
        <status value="completed"/>
        <patient>
          <reference value="Patient/smart-1157764"/>
        </patient>
        <authorizingPrescription>
          <reference value="MedicationOrder/smart-MedicationOrder-129"/>
        </authorizingPrescription>
        <quantity>
          <value value="4"/>
          <unit value="tablets"/>
          <system value="http://unitsofmeasure.org"/>
          <code value="{tablets}"/>
        </quantity>
        <daysSupply>
          <value value="30"/>
          <unit value="days"/>
          <system value="http://unitsofmeasure.org"/>
          <code value="d"/>
        </daysSupply>
        <medicationCodeableConcept>
          <coding>
            <system value="http://www.nlm.nih.gov/research/umls/rxnorm"/>
            <code value="877300"/>
            <display value="{4 (Risedronate 35 MG Oral Tablet [Actonel]) } Pack [Actonel 35]"/>
          </coding>
          <text value="{4 (Risedronate 35 MG Oral Tablet [Actonel]) } Pack [Actonel 35]"/>
        </medicationCodeableConcept>
        <whenHandedOver value="2007-09-13"/>
      </MedicationDispense>
    </resource>
    <request>
      <method value="PUT"/>
      <url value="MedicationDispense/smart-MedicationDispense-884"/>
    </request>
  </entry>
  <entry>
    <resource>
      <MedicationDispense>
        <meta>
          <tag>
            <system value="https://smarthealthit.org/tags"/>
            <code value="smart-8-2017"/>
          </tag>
        </meta>
        <id value="smart-MedicationDispense-892"/>
        <text>
          <status value="generated"/>
          <div xmlns="http://www.w3.org/1999/xhtml">
            Dispensed 4 tablets = 30 day supply of {4 (Risedronate 35 MG Oral Tablet [Actonel]) } Pack [Actonel 35]
          </div>
        </text>
        <status value="completed"/>
        <patient>
          <reference value="Patient/smart-1157764"/>
        </patient>
        <authorizingPrescription>
          <reference value="MedicationOrder/smart-MedicationOrder-129"/>
        </authorizingPrescription>
        <quantity>
          <value value="4"/>
          <unit value="tablets"/>
          <system value="http://unitsofmeasure.org"/>
          <code value="{tablets}"/>
        </quantity>
        <daysSupply>
          <value value="30"/>
          <unit value="days"/>
          <system value="http://unitsofmeasure.org"/>
          <code value="d"/>
        </daysSupply>
        <medicationCodeableConcept>
          <coding>
            <system value="http://www.nlm.nih.gov/research/umls/rxnorm"/>
            <code value="877300"/>
            <display value="{4 (Risedronate 35 MG Oral Tablet [Actonel]) } Pack [Actonel 35]"/>
          </coding>
          <text value="{4 (Risedronate 35 MG Oral Tablet [Actonel]) } Pack [Actonel 35]"/>
        </medicationCodeableConcept>
        <whenHandedOver value="2008-04-28"/>
      </MedicationDispense>
    </resource>
    <request>
      <method value="PUT"/>
      <url value="MedicationDispense/smart-MedicationDispense-892"/>
    </request>
  </entry>
  <entry>
    <resource>
      <MedicationDispense>
        <meta>
          <tag>
            <system value="https://smarthealthit.org/tags"/>
            <code value="smart-8-2017"/>
          </tag>
        </meta>
        <id value="smart-MedicationDispense-905"/>
        <text>
          <status value="generated"/>
          <div xmlns="http://www.w3.org/1999/xhtml">
            Dispensed 4 tablets = 30 day supply of {4 (Risedronate 35 MG Oral Tablet [Actonel]) } Pack [Actonel 35]
          </div>
        </text>
        <status value="completed"/>
        <patient>
          <reference value="Patient/smart-1157764"/>
        </patient>
        <authorizingPrescription>
          <reference value="MedicationOrder/smart-MedicationOrder-129"/>
        </authorizingPrescription>
        <quantity>
          <value value="4"/>
          <unit value="tablets"/>
          <system value="http://unitsofmeasure.org"/>
          <code value="{tablets}"/>
        </quantity>
        <daysSupply>
          <value value="30"/>
          <unit value="days"/>
          <system value="http://unitsofmeasure.org"/>
          <code value="d"/>
        </daysSupply>
        <medicationCodeableConcept>
          <coding>
            <system value="http://www.nlm.nih.gov/research/umls/rxnorm"/>
            <code value="877300"/>
            <display value="{4 (Risedronate 35 MG Oral Tablet [Actonel]) } Pack [Actonel 35]"/>
          </coding>
          <text value="{4 (Risedronate 35 MG Oral Tablet [Actonel]) } Pack [Actonel 35]"/>
        </medicationCodeableConcept>
        <whenHandedOver value="2009-04-26"/>
      </MedicationDispense>
    </resource>
    <request>
      <method value="PUT"/>
      <url value="MedicationDispense/smart-MedicationDispense-905"/>
    </request>
  </entry>
  <entry>
    <resource>
      <MedicationDispense>
        <meta>
          <tag>
            <system value="https://smarthealthit.org/tags"/>
            <code value="smart-8-2017"/>
          </tag>
        </meta>
        <id value="smart-MedicationDispense-886"/>
        <text>
          <status value="generated"/>
          <div xmlns="http://www.w3.org/1999/xhtml">
            Dispensed 4 tablets = 30 day supply of {4 (Risedronate 35 MG Oral Tablet [Actonel]) } Pack [Actonel 35]
          </div>
        </text>
        <status value="completed"/>
        <patient>
          <reference value="Patient/smart-1157764"/>
        </patient>
        <authorizingPrescription>
          <reference value="MedicationOrder/smart-MedicationOrder-129"/>
        </authorizingPrescription>
        <quantity>
          <value value="4"/>
          <unit value="tablets"/>
          <system value="http://unitsofmeasure.org"/>
          <code value="{tablets}"/>
        </quantity>
        <daysSupply>
          <value value="30"/>
          <unit value="days"/>
          <system value="http://unitsofmeasure.org"/>
          <code value="d"/>
        </daysSupply>
        <medicationCodeableConcept>
          <coding>
            <system value="http://www.nlm.nih.gov/research/umls/rxnorm"/>
            <code value="877300"/>
            <display value="{4 (Risedronate 35 MG Oral Tablet [Actonel]) } Pack [Actonel 35]"/>
          </coding>
          <text value="{4 (Risedronate 35 MG Oral Tablet [Actonel]) } Pack [Actonel 35]"/>
        </medicationCodeableConcept>
        <whenHandedOver value="2007-11-12"/>
      </MedicationDispense>
    </resource>
    <request>
      <method value="PUT"/>
      <url value="MedicationDispense/smart-MedicationDispense-886"/>
    </request>
  </entry>
  <entry>
    <resource>
      <MedicationDispense>
        <meta>
          <tag>
            <system value="https://smarthealthit.org/tags"/>
            <code value="smart-8-2017"/>
          </tag>
        </meta>
        <id value="smart-MedicationDispense-904"/>
        <text>
          <status value="generated"/>
          <div xmlns="http://www.w3.org/1999/xhtml">
            Dispensed 4 tablets = 30 day supply of {4 (Risedronate 35 MG Oral Tablet [Actonel]) } Pack [Actonel 35]
          </div>
        </text>
        <status value="completed"/>
        <patient>
          <reference value="Patient/smart-1157764"/>
        </patient>
        <authorizingPrescription>
          <reference value="MedicationOrder/smart-MedicationOrder-129"/>
        </authorizingPrescription>
        <quantity>
          <value value="4"/>
          <unit value="tablets"/>
          <system value="http://unitsofmeasure.org"/>
          <code value="{tablets}"/>
        </quantity>
        <daysSupply>
          <value value="30"/>
          <unit value="days"/>
          <system value="http://unitsofmeasure.org"/>
          <code value="d"/>
        </daysSupply>
        <medicationCodeableConcept>
          <coding>
            <system value="http://www.nlm.nih.gov/research/umls/rxnorm"/>
            <code value="877300"/>
            <display value="{4 (Risedronate 35 MG Oral Tablet [Actonel]) } Pack [Actonel 35]"/>
          </coding>
          <text value="{4 (Risedronate 35 MG Oral Tablet [Actonel]) } Pack [Actonel 35]"/>
        </medicationCodeableConcept>
        <whenHandedOver value="2009-03-27"/>
      </MedicationDispense>
    </resource>
    <request>
      <method value="PUT"/>
      <url value="MedicationDispense/smart-MedicationDispense-904"/>
    </request>
  </entry>
  <entry>
    <resource>
      <MedicationDispense>
        <meta>
          <tag>
            <system value="https://smarthealthit.org/tags"/>
            <code value="smart-8-2017"/>
          </tag>
        </meta>
        <id value="smart-MedicationDispense-882"/>
        <text>
          <status value="generated"/>
          <div xmlns="http://www.w3.org/1999/xhtml">
            Dispensed 4 tablets = 30 day supply of {4 (Risedronate 35 MG Oral Tablet [Actonel]) } Pack [Actonel 35]
          </div>
        </text>
        <status value="completed"/>
        <patient>
          <reference value="Patient/smart-1157764"/>
        </patient>
        <authorizingPrescription>
          <reference value="MedicationOrder/smart-MedicationOrder-129"/>
        </authorizingPrescription>
        <quantity>
          <value value="4"/>
          <unit value="tablets"/>
          <system value="http://unitsofmeasure.org"/>
          <code value="{tablets}"/>
        </quantity>
        <daysSupply>
          <value value="30"/>
          <unit value="days"/>
          <system value="http://unitsofmeasure.org"/>
          <code value="d"/>
        </daysSupply>
        <medicationCodeableConcept>
          <coding>
            <system value="http://www.nlm.nih.gov/research/umls/rxnorm"/>
            <code value="877300"/>
            <display value="{4 (Risedronate 35 MG Oral Tablet [Actonel]) } Pack [Actonel 35]"/>
          </coding>
          <text value="{4 (Risedronate 35 MG Oral Tablet [Actonel]) } Pack [Actonel 35]"/>
        </medicationCodeableConcept>
        <whenHandedOver value="2007-07-24"/>
      </MedicationDispense>
    </resource>
    <request>
      <method value="PUT"/>
      <url value="MedicationDispense/smart-MedicationDispense-882"/>
    </request>
  </entry>
  <entry>
    <resource>
      <MedicationDispense>
        <meta>
          <tag>
            <system value="https://smarthealthit.org/tags"/>
            <code value="smart-8-2017"/>
          </tag>
        </meta>
        <id value="smart-MedicationDispense-885"/>
        <text>
          <status value="generated"/>
          <div xmlns="http://www.w3.org/1999/xhtml">
            Dispensed 4 tablets = 30 day supply of {4 (Risedronate 35 MG Oral Tablet [Actonel]) } Pack [Actonel 35]
          </div>
        </text>
        <status value="completed"/>
        <patient>
          <reference value="Patient/smart-1157764"/>
        </patient>
        <authorizingPrescription>
          <reference value="MedicationOrder/smart-MedicationOrder-129"/>
        </authorizingPrescription>
        <quantity>
          <value value="4"/>
          <unit value="tablets"/>
          <system value="http://unitsofmeasure.org"/>
          <code value="{tablets}"/>
        </quantity>
        <daysSupply>
          <value value="30"/>
          <unit value="days"/>
          <system value="http://unitsofmeasure.org"/>
          <code value="d"/>
        </daysSupply>
        <medicationCodeableConcept>
          <coding>
            <system value="http://www.nlm.nih.gov/research/umls/rxnorm"/>
            <code value="877300"/>
            <display value="{4 (Risedronate 35 MG Oral Tablet [Actonel]) } Pack [Actonel 35]"/>
          </coding>
          <text value="{4 (Risedronate 35 MG Oral Tablet [Actonel]) } Pack [Actonel 35]"/>
        </medicationCodeableConcept>
        <whenHandedOver value="2007-10-12"/>
      </MedicationDispense>
    </resource>
    <request>
      <method value="PUT"/>
      <url value="MedicationDispense/smart-MedicationDispense-885"/>
    </request>
  </entry>
  <entry>
    <resource>
      <MedicationDispense>
        <meta>
          <tag>
            <system value="https://smarthealthit.org/tags"/>
            <code value="smart-8-2017"/>
          </tag>
        </meta>
        <id value="smart-MedicationDispense-901"/>
        <text>
          <status value="generated"/>
          <div xmlns="http://www.w3.org/1999/xhtml">
            Dispensed 4 tablets = 30 day supply of {4 (Risedronate 35 MG Oral Tablet [Actonel]) } Pack [Actonel 35]
          </div>
        </text>
        <status value="completed"/>
        <patient>
          <reference value="Patient/smart-1157764"/>
        </patient>
        <authorizingPrescription>
          <reference value="MedicationOrder/smart-MedicationOrder-129"/>
        </authorizingPrescription>
        <quantity>
          <value value="4"/>
          <unit value="tablets"/>
          <system value="http://unitsofmeasure.org"/>
          <code value="{tablets}"/>
        </quantity>
        <daysSupply>
          <value value="30"/>
          <unit value="days"/>
          <system value="http://unitsofmeasure.org"/>
          <code value="d"/>
        </daysSupply>
        <medicationCodeableConcept>
          <coding>
            <system value="http://www.nlm.nih.gov/research/umls/rxnorm"/>
            <code value="877300"/>
            <display value="{4 (Risedronate 35 MG Oral Tablet [Actonel]) } Pack [Actonel 35]"/>
          </coding>
          <text value="{4 (Risedronate 35 MG Oral Tablet [Actonel]) } Pack [Actonel 35]"/>
        </medicationCodeableConcept>
        <whenHandedOver value="2009-01-06"/>
      </MedicationDispense>
    </resource>
    <request>
      <method value="PUT"/>
      <url value="MedicationDispense/smart-MedicationDispense-901"/>
    </request>
  </entry>
  <entry>
    <resource>
      <MedicationDispense>
        <meta>
          <tag>
            <system value="https://smarthealthit.org/tags"/>
            <code value="smart-8-2017"/>
          </tag>
        </meta>
        <id value="smart-MedicationDispense-896"/>
        <text>
          <status value="generated"/>
          <div xmlns="http://www.w3.org/1999/xhtml">
            Dispensed 4 tablets = 30 day supply of {4 (Risedronate 35 MG Oral Tablet [Actonel]) } Pack [Actonel 35]
          </div>
        </text>
        <status value="completed"/>
        <patient>
          <reference value="Patient/smart-1157764"/>
        </patient>
        <authorizingPrescription>
          <reference value="MedicationOrder/smart-MedicationOrder-129"/>
        </authorizingPrescription>
        <quantity>
          <value value="4"/>
          <unit value="tablets"/>
          <system value="http://unitsofmeasure.org"/>
          <code value="{tablets}"/>
        </quantity>
        <daysSupply>
          <value value="30"/>
          <unit value="days"/>
          <system value="http://unitsofmeasure.org"/>
          <code value="d"/>
        </daysSupply>
        <medicationCodeableConcept>
          <coding>
            <system value="http://www.nlm.nih.gov/research/umls/rxnorm"/>
            <code value="877300"/>
            <display value="{4 (Risedronate 35 MG Oral Tablet [Actonel]) } Pack [Actonel 35]"/>
          </coding>
          <text value="{4 (Risedronate 35 MG Oral Tablet [Actonel]) } Pack [Actonel 35]"/>
        </medicationCodeableConcept>
        <whenHandedOver value="2008-08-19"/>
      </MedicationDispense>
    </resource>
    <request>
      <method value="PUT"/>
      <url value="MedicationDispense/smart-MedicationDispense-896"/>
    </request>
  </entry>
  <entry>
    <resource>
      <MedicationDispense>
        <meta>
          <tag>
            <system value="https://smarthealthit.org/tags"/>
            <code value="smart-8-2017"/>
          </tag>
        </meta>
        <id value="smart-MedicationDispense-895"/>
        <text>
          <status value="generated"/>
          <div xmlns="http://www.w3.org/1999/xhtml">
            Dispensed 4 tablets = 30 day supply of {4 (Risedronate 35 MG Oral Tablet [Actonel]) } Pack [Actonel 35]
          </div>
        </text>
        <status value="completed"/>
        <patient>
          <reference value="Patient/smart-1157764"/>
        </patient>
        <authorizingPrescription>
          <reference value="MedicationOrder/smart-MedicationOrder-129"/>
        </authorizingPrescription>
        <quantity>
          <value value="4"/>
          <unit value="tablets"/>
          <system value="http://unitsofmeasure.org"/>
          <code value="{tablets}"/>
        </quantity>
        <daysSupply>
          <value value="30"/>
          <unit value="days"/>
          <system value="http://unitsofmeasure.org"/>
          <code value="d"/>
        </daysSupply>
        <medicationCodeableConcept>
          <coding>
            <system value="http://www.nlm.nih.gov/research/umls/rxnorm"/>
            <code value="877300"/>
            <display value="{4 (Risedronate 35 MG Oral Tablet [Actonel]) } Pack [Actonel 35]"/>
          </coding>
          <text value="{4 (Risedronate 35 MG Oral Tablet [Actonel]) } Pack [Actonel 35]"/>
        </medicationCodeableConcept>
        <whenHandedOver value="2008-07-19"/>
      </MedicationDispense>
    </resource>
    <request>
      <method value="PUT"/>
      <url value="MedicationDispense/smart-MedicationDispense-895"/>
    </request>
  </entry>
  <entry>
    <resource>
      <MedicationDispense>
        <meta>
          <tag>
            <system value="https://smarthealthit.org/tags"/>
            <code value="smart-8-2017"/>
          </tag>
        </meta>
        <id value="smart-MedicationDispense-883"/>
        <text>
          <status value="generated"/>
          <div xmlns="http://www.w3.org/1999/xhtml">
            Dispensed 4 tablets = 30 day supply of {4 (Risedronate 35 MG Oral Tablet [Actonel]) } Pack [Actonel 35]
          </div>
        </text>
        <status value="completed"/>
        <patient>
          <reference value="Patient/smart-1157764"/>
        </patient>
        <authorizingPrescription>
          <reference value="MedicationOrder/smart-MedicationOrder-129"/>
        </authorizingPrescription>
        <quantity>
          <value value="4"/>
          <unit value="tablets"/>
          <system value="http://unitsofmeasure.org"/>
          <code value="{tablets}"/>
        </quantity>
        <daysSupply>
          <value value="30"/>
          <unit value="days"/>
          <system value="http://unitsofmeasure.org"/>
          <code value="d"/>
        </daysSupply>
        <medicationCodeableConcept>
          <coding>
            <system value="http://www.nlm.nih.gov/research/umls/rxnorm"/>
            <code value="877300"/>
            <display value="{4 (Risedronate 35 MG Oral Tablet [Actonel]) } Pack [Actonel 35]"/>
          </coding>
          <text value="{4 (Risedronate 35 MG Oral Tablet [Actonel]) } Pack [Actonel 35]"/>
        </medicationCodeableConcept>
        <whenHandedOver value="2007-08-21"/>
      </MedicationDispense>
    </resource>
    <request>
      <method value="PUT"/>
      <url value="MedicationDispense/smart-MedicationDispense-883"/>
    </request>
  </entry>
  <entry>
    <resource>
      <MedicationDispense>
        <meta>
          <tag>
            <system value="https://smarthealthit.org/tags"/>
            <code value="smart-8-2017"/>
          </tag>
        </meta>
        <id value="smart-MedicationDispense-893"/>
        <text>
          <status value="generated"/>
          <div xmlns="http://www.w3.org/1999/xhtml">
            Dispensed 4 tablets = 30 day supply of {4 (Risedronate 35 MG Oral Tablet [Actonel]) } Pack [Actonel 35]
          </div>
        </text>
        <status value="completed"/>
        <patient>
          <reference value="Patient/smart-1157764"/>
        </patient>
        <authorizingPrescription>
          <reference value="MedicationOrder/smart-MedicationOrder-129"/>
        </authorizingPrescription>
        <quantity>
          <value value="4"/>
          <unit value="tablets"/>
          <system value="http://unitsofmeasure.org"/>
          <code value="{tablets}"/>
        </quantity>
        <daysSupply>
          <value value="30"/>
          <unit value="days"/>
          <system value="http://unitsofmeasure.org"/>
          <code value="d"/>
        </daysSupply>
        <medicationCodeableConcept>
          <coding>
            <system value="http://www.nlm.nih.gov/research/umls/rxnorm"/>
            <code value="877300"/>
            <display value="{4 (Risedronate 35 MG Oral Tablet [Actonel]) } Pack [Actonel 35]"/>
          </coding>
          <text value="{4 (Risedronate 35 MG Oral Tablet [Actonel]) } Pack [Actonel 35]"/>
        </medicationCodeableConcept>
        <whenHandedOver value="2008-05-22"/>
      </MedicationDispense>
    </resource>
    <request>
      <method value="PUT"/>
      <url value="MedicationDispense/smart-MedicationDispense-893"/>
    </request>
  </entry>
  <entry>
    <resource>
      <MedicationDispense>
        <meta>
          <tag>
            <system value="https://smarthealthit.org/tags"/>
            <code value="smart-8-2017"/>
          </tag>
        </meta>
        <id value="smart-MedicationDispense-907"/>
        <text>
          <status value="generated"/>
          <div xmlns="http://www.w3.org/1999/xhtml">
            Dispensed 4 tablets = 30 day supply of {4 (Risedronate 35 MG Oral Tablet [Actonel]) } Pack [Actonel 35]
          </div>
        </text>
        <status value="completed"/>
        <patient>
          <reference value="Patient/smart-1157764"/>
        </patient>
        <authorizingPrescription>
          <reference value="MedicationOrder/smart-MedicationOrder-129"/>
        </authorizingPrescription>
        <quantity>
          <value value="4"/>
          <unit value="tablets"/>
          <system value="http://unitsofmeasure.org"/>
          <code value="{tablets}"/>
        </quantity>
        <daysSupply>
          <value value="30"/>
          <unit value="days"/>
          <system value="http://unitsofmeasure.org"/>
          <code value="d"/>
        </daysSupply>
        <medicationCodeableConcept>
          <coding>
            <system value="http://www.nlm.nih.gov/research/umls/rxnorm"/>
            <code value="877300"/>
            <display value="{4 (Risedronate 35 MG Oral Tablet [Actonel]) } Pack [Actonel 35]"/>
          </coding>
          <text value="{4 (Risedronate 35 MG Oral Tablet [Actonel]) } Pack [Actonel 35]"/>
        </medicationCodeableConcept>
        <whenHandedOver value="2009-07-21"/>
      </MedicationDispense>
    </resource>
    <request>
      <method value="PUT"/>
      <url value="MedicationDispense/smart-MedicationDispense-907"/>
    </request>
  </entry>
  <entry>
    <resource>
      <MedicationDispense>
        <meta>
          <tag>
            <system value="https://smarthealthit.org/tags"/>
            <code value="smart-8-2017"/>
          </tag>
        </meta>
        <id value="smart-MedicationDispense-888"/>
        <text>
          <status value="generated"/>
          <div xmlns="http://www.w3.org/1999/xhtml">
            Dispensed 4 tablets = 30 day supply of {4 (Risedronate 35 MG Oral Tablet [Actonel]) } Pack [Actonel 35]
          </div>
        </text>
        <status value="completed"/>
        <patient>
          <reference value="Patient/smart-1157764"/>
        </patient>
        <authorizingPrescription>
          <reference value="MedicationOrder/smart-MedicationOrder-129"/>
        </authorizingPrescription>
        <quantity>
          <value value="4"/>
          <unit value="tablets"/>
          <system value="http://unitsofmeasure.org"/>
          <code value="{tablets}"/>
        </quantity>
        <daysSupply>
          <value value="30"/>
          <unit value="days"/>
          <system value="http://unitsofmeasure.org"/>
          <code value="d"/>
        </daysSupply>
        <medicationCodeableConcept>
          <coding>
            <system value="http://www.nlm.nih.gov/research/umls/rxnorm"/>
            <code value="877300"/>
            <display value="{4 (Risedronate 35 MG Oral Tablet [Actonel]) } Pack [Actonel 35]"/>
          </coding>
          <text value="{4 (Risedronate 35 MG Oral Tablet [Actonel]) } Pack [Actonel 35]"/>
        </medicationCodeableConcept>
        <whenHandedOver value="2008-01-02"/>
      </MedicationDispense>
    </resource>
    <request>
      <method value="PUT"/>
      <url value="MedicationDispense/smart-MedicationDispense-888"/>
    </request>
  </entry>
  <entry>
    <resource>
      <MedicationDispense>
        <meta>
          <tag>
            <system value="https://smarthealthit.org/tags"/>
            <code value="smart-8-2017"/>
          </tag>
        </meta>
        <id value="smart-MedicationDispense-887"/>
        <text>
          <status value="generated"/>
          <div xmlns="http://www.w3.org/1999/xhtml">
            Dispensed 4 tablets = 30 day supply of {4 (Risedronate 35 MG Oral Tablet [Actonel]) } Pack [Actonel 35]
          </div>
        </text>
        <status value="completed"/>
        <patient>
          <reference value="Patient/smart-1157764"/>
        </patient>
        <authorizingPrescription>
          <reference value="MedicationOrder/smart-MedicationOrder-129"/>
        </authorizingPrescription>
        <quantity>
          <value value="4"/>
          <unit value="tablets"/>
          <system value="http://unitsofmeasure.org"/>
          <code value="{tablets}"/>
        </quantity>
        <daysSupply>
          <value value="30"/>
          <unit value="days"/>
          <system value="http://unitsofmeasure.org"/>
          <code value="d"/>
        </daysSupply>
        <medicationCodeableConcept>
          <coding>
            <system value="http://www.nlm.nih.gov/research/umls/rxnorm"/>
            <code value="877300"/>
            <display value="{4 (Risedronate 35 MG Oral Tablet [Actonel]) } Pack [Actonel 35]"/>
          </coding>
          <text value="{4 (Risedronate 35 MG Oral Tablet [Actonel]) } Pack [Actonel 35]"/>
        </medicationCodeableConcept>
        <whenHandedOver value="2007-12-12"/>
      </MedicationDispense>
    </resource>
    <request>
      <method value="PUT"/>
      <url value="MedicationDispense/smart-MedicationDispense-887"/>
    </request>
  </entry>
  <entry>
    <resource>
      <MedicationDispense>
        <meta>
          <tag>
            <system value="https://smarthealthit.org/tags"/>
            <code value="smart-8-2017"/>
          </tag>
        </meta>
        <id value="smart-MedicationDispense-897"/>
        <text>
          <status value="generated"/>
          <div xmlns="http://www.w3.org/1999/xhtml">
            Dispensed 4 tablets = 30 day supply of {4 (Risedronate 35 MG Oral Tablet [Actonel]) } Pack [Actonel 35]
          </div>
        </text>
        <status value="completed"/>
        <patient>
          <reference value="Patient/smart-1157764"/>
        </patient>
        <authorizingPrescription>
          <reference value="MedicationOrder/smart-MedicationOrder-129"/>
        </authorizingPrescription>
        <quantity>
          <value value="4"/>
          <unit value="tablets"/>
          <system value="http://unitsofmeasure.org"/>
          <code value="{tablets}"/>
        </quantity>
        <daysSupply>
          <value value="30"/>
          <unit value="days"/>
          <system value="http://unitsofmeasure.org"/>
          <code value="d"/>
        </daysSupply>
        <medicationCodeableConcept>
          <coding>
            <system value="http://www.nlm.nih.gov/research/umls/rxnorm"/>
            <code value="877300"/>
            <display value="{4 (Risedronate 35 MG Oral Tablet [Actonel]) } Pack [Actonel 35]"/>
          </coding>
          <text value="{4 (Risedronate 35 MG Oral Tablet [Actonel]) } Pack [Actonel 35]"/>
        </medicationCodeableConcept>
        <whenHandedOver value="2008-09-16"/>
      </MedicationDispense>
    </resource>
    <request>
      <method value="PUT"/>
      <url value="MedicationDispense/smart-MedicationDispense-897"/>
    </request>
  </entry>
  <entry>
    <resource>
      <MedicationDispense>
        <meta>
          <tag>
            <system value="https://smarthealthit.org/tags"/>
            <code value="smart-8-2017"/>
          </tag>
        </meta>
        <id value="smart-MedicationDispense-906"/>
        <text>
          <status value="generated"/>
          <div xmlns="http://www.w3.org/1999/xhtml">
            Dispensed 4 tablets = 30 day supply of {4 (Risedronate 35 MG Oral Tablet [Actonel]) } Pack [Actonel 35]
          </div>
        </text>
        <status value="completed"/>
        <patient>
          <reference value="Patient/smart-1157764"/>
        </patient>
        <authorizingPrescription>
          <reference value="MedicationOrder/smart-MedicationOrder-129"/>
        </authorizingPrescription>
        <quantity>
          <value value="4"/>
          <unit value="tablets"/>
          <system value="http://unitsofmeasure.org"/>
          <code value="{tablets}"/>
        </quantity>
        <daysSupply>
          <value value="30"/>
          <unit value="days"/>
          <system value="http://unitsofmeasure.org"/>
          <code value="d"/>
        </daysSupply>
        <medicationCodeableConcept>
          <coding>
            <system value="http://www.nlm.nih.gov/research/umls/rxnorm"/>
            <code value="877300"/>
            <display value="{4 (Risedronate 35 MG Oral Tablet [Actonel]) } Pack [Actonel 35]"/>
          </coding>
          <text value="{4 (Risedronate 35 MG Oral Tablet [Actonel]) } Pack [Actonel 35]"/>
        </medicationCodeableConcept>
        <whenHandedOver value="2009-06-23"/>
      </MedicationDispense>
    </resource>
    <request>
      <method value="PUT"/>
      <url value="MedicationDispense/smart-MedicationDispense-906"/>
    </request>
  </entry>
  <entry>
    <resource>
      <MedicationDispense>
        <meta>
          <tag>
            <system value="https://smarthealthit.org/tags"/>
            <code value="smart-8-2017"/>
          </tag>
        </meta>
        <id value="smart-MedicationDispense-903"/>
        <text>
          <status value="generated"/>
          <div xmlns="http://www.w3.org/1999/xhtml">
            Dispensed 4 tablets = 30 day supply of {4 (Risedronate 35 MG Oral Tablet [Actonel]) } Pack [Actonel 35]
          </div>
        </text>
        <status value="completed"/>
        <patient>
          <reference value="Patient/smart-1157764"/>
        </patient>
        <authorizingPrescription>
          <reference value="MedicationOrder/smart-MedicationOrder-129"/>
        </authorizingPrescription>
        <quantity>
          <value value="4"/>
          <unit value="tablets"/>
          <system value="http://unitsofmeasure.org"/>
          <code value="{tablets}"/>
        </quantity>
        <daysSupply>
          <value value="30"/>
          <unit value="days"/>
          <system value="http://unitsofmeasure.org"/>
          <code value="d"/>
        </daysSupply>
        <medicationCodeableConcept>
          <coding>
            <system value="http://www.nlm.nih.gov/research/umls/rxnorm"/>
            <code value="877300"/>
            <display value="{4 (Risedronate 35 MG Oral Tablet [Actonel]) } Pack [Actonel 35]"/>
          </coding>
          <text value="{4 (Risedronate 35 MG Oral Tablet [Actonel]) } Pack [Actonel 35]"/>
        </medicationCodeableConcept>
        <whenHandedOver value="2009-02-25"/>
      </MedicationDispense>
    </resource>
    <request>
      <method value="PUT"/>
      <url value="MedicationDispense/smart-MedicationDispense-903"/>
    </request>
  </entry>
  <entry>
    <resource>
      <MedicationDispense>
        <meta>
          <tag>
            <system value="https://smarthealthit.org/tags"/>
            <code value="smart-8-2017"/>
          </tag>
        </meta>
        <id value="smart-MedicationDispense-909"/>
        <text>
          <status value="generated"/>
          <div xmlns="http://www.w3.org/1999/xhtml">
            Dispensed 4 tablets = 30 day supply of {4 (Risedronate 35 MG Oral Tablet [Actonel]) } Pack [Actonel 35]
          </div>
        </text>
        <status value="completed"/>
        <patient>
          <reference value="Patient/smart-1157764"/>
        </patient>
        <authorizingPrescription>
          <reference value="MedicationOrder/smart-MedicationOrder-129"/>
        </authorizingPrescription>
        <quantity>
          <value value="4"/>
          <unit value="tablets"/>
          <system value="http://unitsofmeasure.org"/>
          <code value="{tablets}"/>
        </quantity>
        <daysSupply>
          <value value="30"/>
          <unit value="days"/>
          <system value="http://unitsofmeasure.org"/>
          <code value="d"/>
        </daysSupply>
        <medicationCodeableConcept>
          <coding>
            <system value="http://www.nlm.nih.gov/research/umls/rxnorm"/>
            <code value="877300"/>
            <display value="{4 (Risedronate 35 MG Oral Tablet [Actonel]) } Pack [Actonel 35]"/>
          </coding>
          <text value="{4 (Risedronate 35 MG Oral Tablet [Actonel]) } Pack [Actonel 35]"/>
        </medicationCodeableConcept>
        <whenHandedOver value="2009-09-13"/>
      </MedicationDispense>
    </resource>
    <request>
      <method value="PUT"/>
      <url value="MedicationDispense/smart-MedicationDispense-909"/>
    </request>
  </entry>
  <entry>
    <resource>
      <MedicationDispense>
        <meta>
          <tag>
            <system value="https://smarthealthit.org/tags"/>
            <code value="smart-8-2017"/>
          </tag>
        </meta>
        <id value="smart-MedicationDispense-894"/>
        <text>
          <status value="generated"/>
          <div xmlns="http://www.w3.org/1999/xhtml">
            Dispensed 4 tablets = 30 day supply of {4 (Risedronate 35 MG Oral Tablet [Actonel]) } Pack [Actonel 35]
          </div>
        </text>
        <status value="completed"/>
        <patient>
          <reference value="Patient/smart-1157764"/>
        </patient>
        <authorizingPrescription>
          <reference value="MedicationOrder/smart-MedicationOrder-129"/>
        </authorizingPrescription>
        <quantity>
          <value value="4"/>
          <unit value="tablets"/>
          <system value="http://unitsofmeasure.org"/>
          <code value="{tablets}"/>
        </quantity>
        <daysSupply>
          <value value="30"/>
          <unit value="days"/>
          <system value="http://unitsofmeasure.org"/>
          <code value="d"/>
        </daysSupply>
        <medicationCodeableConcept>
          <coding>
            <system value="http://www.nlm.nih.gov/research/umls/rxnorm"/>
            <code value="877300"/>
            <display value="{4 (Risedronate 35 MG Oral Tablet [Actonel]) } Pack [Actonel 35]"/>
          </coding>
          <text value="{4 (Risedronate 35 MG Oral Tablet [Actonel]) } Pack [Actonel 35]"/>
        </medicationCodeableConcept>
        <whenHandedOver value="2008-06-20"/>
      </MedicationDispense>
    </resource>
    <request>
      <method value="PUT"/>
      <url value="MedicationDispense/smart-MedicationDispense-894"/>
    </request>
  </entry>
  <entry>
    <resource>
      <MedicationDispense>
        <meta>
          <tag>
            <system value="https://smarthealthit.org/tags"/>
            <code value="smart-8-2017"/>
          </tag>
        </meta>
        <id value="smart-MedicationDispense-881"/>
        <text>
          <status value="generated"/>
          <div xmlns="http://www.w3.org/1999/xhtml">
            Dispensed 4 tablets = 30 day supply of {4 (Risedronate 35 MG Oral Tablet [Actonel]) } Pack [Actonel 35]
          </div>
        </text>
        <status value="completed"/>
        <patient>
          <reference value="Patient/smart-1157764"/>
        </patient>
        <authorizingPrescription>
          <reference value="MedicationOrder/smart-MedicationOrder-129"/>
        </authorizingPrescription>
        <quantity>
          <value value="4"/>
          <unit value="tablets"/>
          <system value="http://unitsofmeasure.org"/>
          <code value="{tablets}"/>
        </quantity>
        <daysSupply>
          <value value="30"/>
          <unit value="days"/>
          <system value="http://unitsofmeasure.org"/>
          <code value="d"/>
        </daysSupply>
        <medicationCodeableConcept>
          <coding>
            <system value="http://www.nlm.nih.gov/research/umls/rxnorm"/>
            <code value="877300"/>
            <display value="{4 (Risedronate 35 MG Oral Tablet [Actonel]) } Pack [Actonel 35]"/>
          </coding>
          <text value="{4 (Risedronate 35 MG Oral Tablet [Actonel]) } Pack [Actonel 35]"/>
        </medicationCodeableConcept>
        <whenHandedOver value="2007-06-26"/>
      </MedicationDispense>
    </resource>
    <request>
      <method value="PUT"/>
      <url value="MedicationDispense/smart-MedicationDispense-881"/>
    </request>
  </entry>
  <entry>
    <resource>
      <MedicationDispense>
        <meta>
          <tag>
            <system value="https://smarthealthit.org/tags"/>
            <code value="smart-8-2017"/>
          </tag>
        </meta>
        <id value="smart-MedicationDispense-900"/>
        <text>
          <status value="generated"/>
          <div xmlns="http://www.w3.org/1999/xhtml">
            Dispensed 4 tablets = 30 day supply of {4 (Risedronate 35 MG Oral Tablet [Actonel]) } Pack [Actonel 35]
          </div>
        </text>
        <status value="completed"/>
        <patient>
          <reference value="Patient/smart-1157764"/>
        </patient>
        <authorizingPrescription>
          <reference value="MedicationOrder/smart-MedicationOrder-129"/>
        </authorizingPrescription>
        <quantity>
          <value value="4"/>
          <unit value="tablets"/>
          <system value="http://unitsofmeasure.org"/>
          <code value="{tablets}"/>
        </quantity>
        <daysSupply>
          <value value="30"/>
          <unit value="days"/>
          <system value="http://unitsofmeasure.org"/>
          <code value="d"/>
        </daysSupply>
        <medicationCodeableConcept>
          <coding>
            <system value="http://www.nlm.nih.gov/research/umls/rxnorm"/>
            <code value="877300"/>
            <display value="{4 (Risedronate 35 MG Oral Tablet [Actonel]) } Pack [Actonel 35]"/>
          </coding>
          <text value="{4 (Risedronate 35 MG Oral Tablet [Actonel]) } Pack [Actonel 35]"/>
        </medicationCodeableConcept>
        <whenHandedOver value="2008-12-08"/>
      </MedicationDispense>
    </resource>
    <request>
      <method value="PUT"/>
      <url value="MedicationDispense/smart-MedicationDispense-900"/>
    </request>
  </entry>
  <entry>
    <resource>
      <MedicationOrder>
        <meta>
          <tag>
            <system value="https://smarthealthit.org/tags"/>
            <code value="smart-8-2017"/>
          </tag>
        </meta>
        <id value="smart-MedicationOrder-130"/>
        <text>
          <status value="generated"/>
          <div xmlns="http://www.w3.org/1999/xhtml">
            Nitrofurantoin 100 MG Oral Capsule (rxnorm: 311992)
          </div>
        </text>
        <status value="active"/>
        <patient>
          <reference value="Patient/smart-1157764"/>
        </patient>
        <medicationCodeableConcept>
          <coding>
            <system value="http://www.nlm.nih.gov/research/umls/rxnorm"/>
            <code value="311992"/>
            <display value="Nitrofurantoin 100 MG Oral Capsule"/>
          </coding>
          <text value="Nitrofurantoin 100 MG Oral Capsule"/>
        </medicationCodeableConcept>
        <dosageInstruction>
          <timing>
            <repeat>
              <boundsPeriod>
                <start value="2006-10-31"/>
              </boundsPeriod>
              <frequency value="2"/>
              <period value="1"/>
              <periodUnits value="d"/>
            </repeat>
          </timing>
          <doseQuantity>
            <value value="1"/>
            <unit value="{tablet}"/>
            <system value="http://unitsofmeasure.org"/>
            <code value="{tablet}"/>
          </doseQuantity>
          <text value="1 bid"/>
        </dosageInstruction>
        <dispenseRequest>
          <numberOfRepeatsAllowed value="1"/>
          <quantity>
            <value value="60"/>
            <unit value="{tablet}"/>
            <system value="http://unitsofmeasure.org"/>
            <code value="{tablet}"/>
          </quantity>
          <expectedSupplyDuration>
            <value value="30"/>
            <unit value="days"/>
            <system value="http://unitsofmeasure.org"/>
            <code value="d"/>
          </expectedSupplyDuration>
        </dispenseRequest>
      </MedicationOrder>
    </resource>
    <request>
      <method value="PUT"/>
      <url value="MedicationOrder/smart-MedicationOrder-130"/>
    </request>
  </entry>
  <entry>
    <resource>
      <MedicationDispense>
        <meta>
          <tag>
            <system value="https://smarthealthit.org/tags"/>
            <code value="smart-8-2017"/>
          </tag>
        </meta>
        <id value="smart-MedicationDispense-880"/>
        <text>
          <status value="generated"/>
          <div xmlns="http://www.w3.org/1999/xhtml">
            Dispensed 60 tablets = 30 day supply of Nitrofurantoin 100 MG Oral Capsule
          </div>
        </text>
        <status value="completed"/>
        <patient>
          <reference value="Patient/smart-1157764"/>
        </patient>
        <authorizingPrescription>
          <reference value="MedicationOrder/smart-MedicationOrder-130"/>
        </authorizingPrescription>
        <quantity>
          <value value="60"/>
          <unit value="tablets"/>
          <system value="http://unitsofmeasure.org"/>
          <code value="{tablets}"/>
        </quantity>
        <daysSupply>
          <value value="30"/>
          <unit value="days"/>
          <system value="http://unitsofmeasure.org"/>
          <code value="d"/>
        </daysSupply>
        <medicationCodeableConcept>
          <coding>
            <system value="http://www.nlm.nih.gov/research/umls/rxnorm"/>
            <code value="311992"/>
            <display value="Nitrofurantoin 100 MG Oral Capsule"/>
          </coding>
          <text value="Nitrofurantoin 100 MG Oral Capsule"/>
        </medicationCodeableConcept>
        <whenHandedOver value="2010-06-24"/>
      </MedicationDispense>
    </resource>
    <request>
      <method value="PUT"/>
      <url value="MedicationDispense/smart-MedicationDispense-880"/>
    </request>
  </entry>
  <entry>
    <resource>
      <MedicationOrder>
        <meta>
          <tag>
            <system value="https://smarthealthit.org/tags"/>
            <code value="smart-8-2017"/>
          </tag>
        </meta>
        <id value="smart-MedicationOrder-131"/>
        <text>
          <status value="generated"/>
          <div xmlns="http://www.w3.org/1999/xhtml">
            bimatoprost 0.3 MG/ML Ophthalmic Solution [Lumigan] (rxnorm: 285128)
          </div>
        </text>
        <status value="active"/>
        <patient>
          <reference value="Patient/smart-1157764"/>
        </patient>
        <medicationCodeableConcept>
          <coding>
            <system value="http://www.nlm.nih.gov/research/umls/rxnorm"/>
            <code value="285128"/>
            <display value="bimatoprost 0.3 MG/ML Ophthalmic Solution [Lumigan]"/>
          </coding>
          <text value="bimatoprost 0.3 MG/ML Ophthalmic Solution [Lumigan]"/>
        </medicationCodeableConcept>
        <dosageInstruction>
          <timing>
            <repeat>
              <boundsPeriod>
                <start value="2009-08-22"/>
              </boundsPeriod>
              <frequency value="1"/>
              <period value="1"/>
              <periodUnits value="d"/>
            </repeat>
          </timing>
          <doseQuantity>
            <value value="1"/>
            <unit value="[drp]"/>
            <system value="http://unitsofmeasure.org"/>
            <code value="[drp]"/>
          </doseQuantity>
          <text value="1 gtt daily in OD"/>
        </dosageInstruction>
        <dispenseRequest>
          <numberOfRepeatsAllowed value="1"/>
          <quantity>
            <value value="2"/>
            <unit value="[drp]"/>
            <system value="http://unitsofmeasure.org"/>
            <code value="[drp]"/>
          </quantity>
          <expectedSupplyDuration>
            <value value="20"/>
            <unit value="days"/>
            <system value="http://unitsofmeasure.org"/>
            <code value="d"/>
          </expectedSupplyDuration>
        </dispenseRequest>
      </MedicationOrder>
    </resource>
    <request>
      <method value="PUT"/>
      <url value="MedicationOrder/smart-MedicationOrder-131"/>
    </request>
  </entry>
  <entry>
    <resource>
      <MedicationDispense>
        <meta>
          <tag>
            <system value="https://smarthealthit.org/tags"/>
            <code value="smart-8-2017"/>
          </tag>
        </meta>
        <id value="smart-MedicationDispense-937"/>
        <text>
          <status value="generated"/>
          <div xmlns="http://www.w3.org/1999/xhtml">
            Dispensed 2 tablets = 20 day supply of bimatoprost 0.3 MG/ML Ophthalmic Solution [Lumigan]
          </div>
        </text>
        <status value="completed"/>
        <patient>
          <reference value="Patient/smart-1157764"/>
        </patient>
        <authorizingPrescription>
          <reference value="MedicationOrder/smart-MedicationOrder-131"/>
        </authorizingPrescription>
        <quantity>
          <value value="2"/>
          <unit value="tablets"/>
          <system value="http://unitsofmeasure.org"/>
          <code value="{tablets}"/>
        </quantity>
        <daysSupply>
          <value value="20"/>
          <unit value="days"/>
          <system value="http://unitsofmeasure.org"/>
          <code value="d"/>
        </daysSupply>
        <medicationCodeableConcept>
          <coding>
            <system value="http://www.nlm.nih.gov/research/umls/rxnorm"/>
            <code value="285128"/>
            <display value="bimatoprost 0.3 MG/ML Ophthalmic Solution [Lumigan]"/>
          </coding>
          <text value="bimatoprost 0.3 MG/ML Ophthalmic Solution [Lumigan]"/>
        </medicationCodeableConcept>
        <whenHandedOver value="2013-04-15"/>
      </MedicationDispense>
    </resource>
    <request>
      <method value="PUT"/>
      <url value="MedicationDispense/smart-MedicationDispense-937"/>
    </request>
  </entry>
  <entry>
    <resource>
      <Condition>
        <meta>
          <tag>
            <system value="https://smarthealthit.org/tags"/>
            <code value="smart-8-2017"/>
          </tag>
        </meta>
        <id value="smart-Condition-379"/>
        <text>
          <status value="generated"/>
          <div xmlns="http://www.w3.org/1999/xhtml">
            Primary malignant neoplasm of female breast
          </div>
        </text>
        <patient>
          <reference value="Patient/smart-1157764"/>
        </patient>
        <code>
          <coding>
            <system value="http://snomed.info/sct"/>
            <code value="254837009"/>
            <display value="Primary malignant neoplasm of female breast"/>
          </coding>
          <text value="Primary malignant neoplasm of female breast"/>
        </code>
        <clinicalStatus value="active"/>
        <verificationStatus value="confirmed"/>
        <onsetDateTime value="2007-08-09"/>
      </Condition>
    </resource>
    <request>
      <method value="PUT"/>
      <url value="Condition/smart-Condition-379"/>
    </request>
  </entry>
  <entry>
    <resource>
      <Condition>
        <meta>
          <tag>
            <system value="https://smarthealthit.org/tags"/>
            <code value="smart-8-2017"/>
          </tag>
        </meta>
        <id value="smart-Condition-380"/>
        <text>
          <status value="generated"/>
          <div xmlns="http://www.w3.org/1999/xhtml">
            Adjustment disorder
          </div>
        </text>
        <patient>
          <reference value="Patient/smart-1157764"/>
        </patient>
        <code>
          <coding>
            <system value="http://snomed.info/sct"/>
            <code value="17226007"/>
            <display value="Adjustment disorder"/>
          </coding>
          <text value="Adjustment disorder"/>
        </code>
        <clinicalStatus value="active"/>
        <verificationStatus value="confirmed"/>
        <onsetDateTime value="2009-05-08"/>
      </Condition>
    </resource>
    <request>
      <method value="PUT"/>
      <url value="Condition/smart-Condition-380"/>
    </request>
  </entry>
  <entry>
    <resource>
      <Condition>
        <meta>
          <tag>
            <system value="https://smarthealthit.org/tags"/>
            <code value="smart-8-2017"/>
          </tag>
        </meta>
        <id value="smart-Condition-381"/>
        <text>
          <status value="generated"/>
          <div xmlns="http://www.w3.org/1999/xhtml">
            Crohn's disease of large bowel
          </div>
        </text>
        <patient>
          <reference value="Patient/smart-1157764"/>
        </patient>
        <code>
          <coding>
            <system value="http://snomed.info/sct"/>
            <code value="7620006"/>
            <display value="Crohn's disease of large bowel"/>
          </coding>
          <text value="Crohn's disease of large bowel"/>
        </code>
        <clinicalStatus value="active"/>
        <verificationStatus value="confirmed"/>
        <onsetDateTime value="2009-07-08"/>
      </Condition>
    </resource>
    <request>
      <method value="PUT"/>
      <url value="Condition/smart-Condition-381"/>
    </request>
  </entry>
  <entry>
    <resource>
      <Condition>
        <meta>
          <tag>
            <system value="https://smarthealthit.org/tags"/>
            <code value="smart-8-2017"/>
          </tag>
        </meta>
        <id value="smart-Condition-382"/>
        <text>
          <status value="generated"/>
          <div xmlns="http://www.w3.org/1999/xhtml">
            Recurrent major depressive episodes, moderate
          </div>
        </text>
        <patient>
          <reference value="Patient/smart-1157764"/>
        </patient>
        <code>
          <coding>
            <system value="http://snomed.info/sct"/>
            <code value="18818009"/>
            <display value="Recurrent major depressive episodes, moderate"/>
          </coding>
          <text value="Recurrent major depressive episodes, moderate"/>
        </code>
        <clinicalStatus value="active"/>
        <verificationStatus value="confirmed"/>
        <onsetDateTime value="2009-07-09"/>
      </Condition>
    </resource>
    <request>
      <method value="PUT"/>
      <url value="Condition/smart-Condition-382"/>
    </request>
  </entry>
  <entry>
    <resource>
      <Condition>
        <meta>
          <tag>
            <system value="https://smarthealthit.org/tags"/>
            <code value="smart-8-2017"/>
          </tag>
        </meta>
        <id value="smart-Condition-383"/>
        <text>
          <status value="generated"/>
          <div xmlns="http://www.w3.org/1999/xhtml">
            Acute sinusitis
          </div>
        </text>
        <patient>
          <reference value="Patient/smart-1157764"/>
        </patient>
        <code>
          <coding>
            <system value="http://snomed.info/sct"/>
            <code value="36971009"/>
            <display value="Acute sinusitis"/>
          </coding>
          <text value="Acute sinusitis"/>
        </code>
        <clinicalStatus value="active"/>
        <verificationStatus value="confirmed"/>
        <onsetDateTime value="2010-05-20"/>
      </Condition>
    </resource>
    <request>
      <method value="PUT"/>
      <url value="Condition/smart-Condition-383"/>
    </request>
  </entry>
  <entry>
    <resource>
      <Condition>
        <meta>
          <tag>
            <system value="https://smarthealthit.org/tags"/>
            <code value="smart-8-2017"/>
          </tag>
        </meta>
        <id value="smart-Condition-384"/>
        <text>
          <status value="generated"/>
          <div xmlns="http://www.w3.org/1999/xhtml">
            Hematuria syndrome
          </div>
        </text>
        <patient>
          <reference value="Patient/smart-1157764"/>
        </patient>
        <code>
          <coding>
            <system value="http://snomed.info/sct"/>
            <code value="53298000"/>
            <display value="Hematuria syndrome"/>
          </coding>
          <text value="Hematuria syndrome"/>
        </code>
        <clinicalStatus value="active"/>
        <verificationStatus value="confirmed"/>
        <onsetDateTime value="2010-06-23"/>
      </Condition>
    </resource>
    <request>
      <method value="PUT"/>
      <url value="Condition/smart-Condition-384"/>
    </request>
  </entry>
  <entry>
    <resource>
      <Condition>
        <meta>
          <tag>
            <system value="https://smarthealthit.org/tags"/>
            <code value="smart-8-2017"/>
          </tag>
        </meta>
        <id value="smart-Condition-385"/>
        <text>
          <status value="generated"/>
          <div xmlns="http://www.w3.org/1999/xhtml">
            Primary malignant neoplasm of central portion of female breast
          </div>
        </text>
        <patient>
          <reference value="Patient/smart-1157764"/>
        </patient>
        <code>
          <coding>
            <system value="http://snomed.info/sct"/>
            <code value="372064008"/>
            <display value="Primary malignant neoplasm of central portion of female breast"/>
          </coding>
          <text value="Primary malignant neoplasm of central portion of female breast"/>
        </code>
        <clinicalStatus value="active"/>
        <verificationStatus value="confirmed"/>
        <onsetDateTime value="2012-06-14"/>
      </Condition>
    </resource>
    <request>
      <method value="PUT"/>
      <url value="Condition/smart-Condition-385"/>
    </request>
  </entry>
  <entry>
    <resource>
      <Condition>
        <meta>
          <tag>
            <system value="https://smarthealthit.org/tags"/>
            <code value="smart-8-2017"/>
          </tag>
        </meta>
        <id value="smart-Condition-386"/>
        <text>
          <status value="generated"/>
          <div xmlns="http://www.w3.org/1999/xhtml">
            Primary open angle glaucoma
          </div>
        </text>
        <patient>
          <reference value="Patient/smart-1157764"/>
        </patient>
        <code>
          <coding>
            <system value="http://snomed.info/sct"/>
            <code value="77075001"/>
            <display value="Primary open angle glaucoma"/>
          </coding>
          <text value="Primary open angle glaucoma"/>
        </code>
        <clinicalStatus value="active"/>
        <verificationStatus value="confirmed"/>
        <onsetDateTime value="2013-01-11"/>
      </Condition>
    </resource>
    <request>
      <method value="PUT"/>
      <url value="Condition/smart-Condition-386"/>
    </request>
  </entry>
  <entry>
    <resource>
      <Condition>
        <meta>
          <tag>
            <system value="https://smarthealthit.org/tags"/>
            <code value="smart-8-2017"/>
          </tag>
        </meta>
        <id value="smart-Condition-387"/>
        <text>
          <status value="generated"/>
          <div xmlns="http://www.w3.org/1999/xhtml">
            Low tension glaucoma
          </div>
        </text>
        <patient>
          <reference value="Patient/smart-1157764"/>
        </patient>
        <code>
          <coding>
            <system value="http://snomed.info/sct"/>
            <code value="50485007"/>
            <display value="Low tension glaucoma"/>
          </coding>
          <text value="Low tension glaucoma"/>
        </code>
        <clinicalStatus value="active"/>
        <verificationStatus value="confirmed"/>
        <onsetDateTime value="2013-02-22"/>
      </Condition>
    </resource>
    <request>
      <method value="PUT"/>
      <url value="Condition/smart-Condition-387"/>
    </request>
  </entry>
  <entry>
    <resource>
      <Observation>
        <id value="smart-Observation-46-smokingstatus"/>
        <text>
          <status value="generated"/>
          <div xmlns="http://www.w3.org/1999/xhtml">
            Tobacco smoking status: Current every day smoker
          </div>
        </text>
        <category>
          <coding>
            <system value="http://hl7.org/fhir/observation-category"/>
            <code value="social-history"/>
            <display value="Social History"/>
          </coding>
          <text value="Social History"/>
        </category>
        <code>
          <coding>
            <system value="http://loinc.org"/>
            <code value="72166-2"/>
            <display value="Tobacco smoking status"/>
          </coding>
          <text value="Tobacco smoking status"/>
        </code>
        <valueCodeableConcept>
          <coding>
            <system value="http://snomed.info/sct"/>
            <code value="449868002"/>
            <display value="Current every day smoker"/>
          </coding>
          <text value="Current every day smoker"/>
        </valueCodeableConcept>
        <status value="final"/>
        <subject>
          <reference value="Patient/smart-1157764"/>
        </subject>
      </Observation>
    </resource>
    <request>
      <method value="PUT"/>
      <url value="Observation/smart-Observation-46-smokingstatus"/>
    </request>
  </entry>
  <entry>
    <resource>
      <Observation>
        <meta>
          <tag>
            <system value="https://smarthealthit.org/tags"/>
            <code value="smart-8-2017"/>
          </tag>
        </meta>
        <id value="smart-Observation-1157764-gestage"/>
        <text>
          <status value="generated"/>
          <div xmlns="http://www.w3.org/1999/xhtml">
            1953-06-28: Gestational age at birth = 38.3 weeks
          </div>
        </text>
        <category>
          <coding>
            <system value="http://hl7.org/fhir/observation-category"/>
            <code value="exam"/>
            <display value="Exam"/>
          </coding>
          <text value="Exam"/>
        </category>
        <code>
          <coding>
            <system value="http://loinc.org"/>
            <code value="18185-9"/>
            <display value="Gestational age at birth"/>
          </coding>
          <text value="Gestational age at birth"/>
        </code>
        <valueQuantity>
          <value value="38.3"/>
          <unit value="weeks"/>
          <system value="http://unitsofmeasure.org"/>
          <code value="wk"/>
        </valueQuantity>
        <effectiveDateTime value="1953-06-28"/>
        <status value="final"/>
        <subject>
          <reference value="Patient/smart-1157764"/>
        </subject>
      </Observation>
    </resource>
    <request>
      <method value="PUT"/>
      <url value="Observation/smart-Observation-1157764-gestage"/>
    </request>
  </entry>
  <entry>
    <resource>
      <List>
        <meta>
          <tag>
            <system value="https://smarthealthit.org/tags"/>
            <code value="smart-8-2017"/>
          </tag>
        </meta>
        <id value="smart-List-24"/>
        <text>
          <status value="generated"/>
          <div xmlns="http://www.w3.org/1999/xhtml">
            No known allergies
          </div>
        </text>
        <code>
          <coding>
            <system value="http://loinc.org/"/>
            <code value="52473-6"/>
            <display value="Allergy"/>
          </coding>
          <text value="Allergy"/>
        </code>
        <subject>
          <reference value="Patient/smart-1157764"/>
        </subject>
        <date value="2000"/>
        <mode value="snapshot"/>
        <emptyReason>
          <coding>
            <system value="http://hl7.org/fhir/list-empty-reason"/>
            <code value="nilknown"/>
            <display value="Nil Known"/>
          </coding>
          <text value="Nil Known"/>
        </emptyReason>
      </List>
    </resource>
    <request>
      <method value="PUT"/>
      <url value="List/smart-List-24"/>
    </request>
  </entry>
</Bundle>