<?xml version="1.0" encoding="UTF-8"?>
<Bundle xmlns="http://hl7.org/fhir">
  <type value="transaction"/>
  <entry>
    <resource>
      <Patient>
        <meta>
          <tag>
            <system value="https://smarthealthit.org/tags"/>
            <code value="smart-8-2017"/>
          </tag>
        </meta>
        <id value="smart-731673"/>
        <text>
          <status value="generated"/>
          <div xmlns="http://www.w3.org/1999/xhtml">
            <p>
              Sarah Graham
            </p>
          </div>
        </text>
        <identifier>
          <use value="usual"/>
          <type>
            <coding>
              <system value="http://hl7.org/fhir/v2/0203"/>
              <code value="MR"/>
              <display value="Medical record number"/>
            </coding>
            <text value="Medical record number"/>
          </type>
          <system value="http://hospital.smarthealthit.org"/>
          <value value="731673"/>
        </identifier>
        <name>
          <use value="official"/>
          <family value="Graham"/>
          <given value="Sarah"/>
          <given value="Y."/>
        </name>
        <telecom>
          <system value="phone"/>
          <value value="800-534-9017"/>
          <use value="home"/>
        </telecom>
        <telecom>
          <system value="email"/>
          <value value="sarah.graham@example.com"/>
        </telecom>
        <gender value="female"/>
        <birthDate value="1953-05-16"/>
        <address>
          <use value="home"/>
          <line value="92 Pine Ave"/>
          <city value="Bixby"/>
          <state value="OK"/>
          <postalCode value="74008"/>
          <country value="USA"/>
        </address>
        <active value="true"/>
      </Patient>
    </resource>
    <request>
      <method value="PUT"/>
      <url value="Patient/smart-731673"/>
    </request>
  </entry>
  <entry>
    <resource>
      <MedicationOrder>
        <meta>
          <tag>
            <system value="https://smarthealthit.org/tags"/>
            <code value="smart-8-2017"/>
          </tag>
        </meta>
        <id value="smart-MedicationOrder-13"/>
        <text>
          <status value="generated"/>
          <div xmlns="http://www.w3.org/1999/xhtml">
            Cetirizine 10 MG Oral Tablet [Zyrtec] (rxnorm: 210596)
          </div>
        </text>
        <status value="active"/>
        <patient>
          <reference value="Patient/smart-731673"/>
        </patient>
        <medicationCodeableConcept>
          <coding>
            <system value="http://www.nlm.nih.gov/research/umls/rxnorm"/>
            <code value="210596"/>
            <display value="Cetirizine 10 MG Oral Tablet [Zyrtec]"/>
          </coding>
          <text value="Cetirizine 10 MG Oral Tablet [Zyrtec]"/>
        </medicationCodeableConcept>
        <dosageInstruction>
          <timing>
            <repeat>
              <boundsPeriod>
                <start value="2004-10-28"/>
              </boundsPeriod>
              <frequency value="1"/>
              <period value="1"/>
              <periodUnits value="d"/>
            </repeat>
          </timing>
          <doseQuantity>
            <value value="1"/>
            <unit value="{tablet}"/>
            <system value="http://unitsofmeasure.org"/>
            <code value="{tablet}"/>
          </doseQuantity>
          <text value="1 daily"/>
        </dosageInstruction>
        <dispenseRequest>
          <numberOfRepeatsAllowed value="1"/>
          <quantity>
            <value value="30"/>
            <unit value="{tablet}"/>
            <system value="http://unitsofmeasure.org"/>
            <code value="{tablet}"/>
          </quantity>
          <expectedSupplyDuration>
            <value value="30"/>
            <unit value="days"/>
            <system value="http://unitsofmeasure.org"/>
            <code value="d"/>
          </expectedSupplyDuration>
        </dispenseRequest>
      </MedicationOrder>
    </resource>
    <request>
      <method value="PUT"/>
      <url value="MedicationOrder/smart-MedicationOrder-13"/>
    </request>
  </entry>
  <entry>
    <resource>
      <MedicationDispense>
        <meta>
          <tag>
            <system value="https://smarthealthit.org/tags"/>
            <code value="smart-8-2017"/>
          </tag>
        </meta>
        <id value="smart-MedicationDispense-181"/>
        <text>
          <status value="generated"/>
          <div xmlns="http://www.w3.org/1999/xhtml">
            Dispensed 30 tablets = 30 day supply of Cetirizine 10 MG Oral Tablet [Zyrtec]
          </div>
        </text>
        <status value="completed"/>
        <patient>
          <reference value="Patient/smart-731673"/>
        </patient>
        <authorizingPrescription>
          <reference value="MedicationOrder/smart-MedicationOrder-13"/>
        </authorizingPrescription>
        <quantity>
          <value value="30"/>
          <unit value="tablets"/>
          <system value="http://unitsofmeasure.org"/>
          <code value="{tablets}"/>
        </quantity>
        <daysSupply>
          <value value="30"/>
          <unit value="days"/>
          <system value="http://unitsofmeasure.org"/>
          <code value="d"/>
        </daysSupply>
        <medicationCodeableConcept>
          <coding>
            <system value="http://www.nlm.nih.gov/research/umls/rxnorm"/>
            <code value="210596"/>
            <display value="Cetirizine 10 MG Oral Tablet [Zyrtec]"/>
          </coding>
          <text value="Cetirizine 10 MG Oral Tablet [Zyrtec]"/>
        </medicationCodeableConcept>
        <whenHandedOver value="2008-06-21"/>
      </MedicationDispense>
    </resource>
    <request>
      <method value="PUT"/>
      <url value="MedicationDispense/smart-MedicationDispense-181"/>
    </request>
  </entry>
  <entry>
    <resource>
      <MedicationOrder>
        <meta>
          <tag>
            <system value="https://smarthealthit.org/tags"/>
            <code value="smart-8-2017"/>
          </tag>
        </meta>
        <id value="smart-MedicationOrder-14"/>
        <text>
          <status value="generated"/>
          <div xmlns="http://www.w3.org/1999/xhtml">
            Levofloxacin 500 MG Oral Tablet [Levaquin] (rxnorm: 211816)
          </div>
        </text>
        <status value="active"/>
        <patient>
          <reference value="Patient/smart-731673"/>
        </patient>
        <medicationCodeableConcept>
          <coding>
            <system value="http://www.nlm.nih.gov/research/umls/rxnorm"/>
            <code value="211816"/>
            <display value="Levofloxacin 500 MG Oral Tablet [Levaquin]"/>
          </coding>
          <text value="Levofloxacin 500 MG Oral Tablet [Levaquin]"/>
        </medicationCodeableConcept>
        <dosageInstruction>
          <timing>
            <repeat>
              <boundsPeriod>
                <start value="2004-10-28"/>
              </boundsPeriod>
              <frequency value="1"/>
              <period value="1"/>
              <periodUnits value="d"/>
            </repeat>
          </timing>
          <doseQuantity>
            <value value="1"/>
            <unit value="{tablet}"/>
            <system value="http://unitsofmeasure.org"/>
            <code value="{tablet}"/>
          </doseQuantity>
          <text value="1 daily"/>
        </dosageInstruction>
        <dispenseRequest>
          <numberOfRepeatsAllowed value="1"/>
          <quantity>
            <value value="10"/>
            <unit value="{tablet}"/>
            <system value="http://unitsofmeasure.org"/>
            <code value="{tablet}"/>
          </quantity>
          <expectedSupplyDuration>
            <value value="10"/>
            <unit value="days"/>
            <system value="http://unitsofmeasure.org"/>
            <code value="d"/>
          </expectedSupplyDuration>
        </dispenseRequest>
      </MedicationOrder>
    </resource>
    <request>
      <method value="PUT"/>
      <url value="MedicationOrder/smart-MedicationOrder-14"/>
    </request>
  </entry>
  <entry>
    <resource>
      <MedicationDispense>
        <meta>
          <tag>
            <system value="https://smarthealthit.org/tags"/>
            <code value="smart-8-2017"/>
          </tag>
        </meta>
        <id value="smart-MedicationDispense-182"/>
        <text>
          <status value="generated"/>
          <div xmlns="http://www.w3.org/1999/xhtml">
            Dispensed 10 tablets = 10 day supply of Levofloxacin 500 MG Oral Tablet [Levaquin]
          </div>
        </text>
        <status value="completed"/>
        <patient>
          <reference value="Patient/smart-731673"/>
        </patient>
        <authorizingPrescription>
          <reference value="MedicationOrder/smart-MedicationOrder-14"/>
        </authorizingPrescription>
        <quantity>
          <value value="10"/>
          <unit value="tablets"/>
          <system value="http://unitsofmeasure.org"/>
          <code value="{tablets}"/>
        </quantity>
        <daysSupply>
          <value value="10"/>
          <unit value="days"/>
          <system value="http://unitsofmeasure.org"/>
          <code value="d"/>
        </daysSupply>
        <medicationCodeableConcept>
          <coding>
            <system value="http://www.nlm.nih.gov/research/umls/rxnorm"/>
            <code value="211816"/>
            <display value="Levofloxacin 500 MG Oral Tablet [Levaquin]"/>
          </coding>
          <text value="Levofloxacin 500 MG Oral Tablet [Levaquin]"/>
        </medicationCodeableConcept>
        <whenHandedOver value="2008-06-21"/>
      </MedicationDispense>
    </resource>
    <request>
      <method value="PUT"/>
      <url value="MedicationDispense/smart-MedicationDispense-182"/>
    </request>
  </entry>
  <entry>
    <resource>
      <MedicationOrder>
        <meta>
          <tag>
            <system value="https://smarthealthit.org/tags"/>
            <code value="smart-8-2017"/>
          </tag>
        </meta>
        <id value="smart-MedicationOrder-15"/>
        <text>
          <status value="generated"/>
          <div xmlns="http://www.w3.org/1999/xhtml">
            Promethazine 25 MG Oral Tablet (rxnorm: 312664)
          </div>
        </text>
        <status value="active"/>
        <patient>
          <reference value="Patient/smart-731673"/>
        </patient>
        <medicationCodeableConcept>
          <coding>
            <system value="http://www.nlm.nih.gov/research/umls/rxnorm"/>
            <code value="312664"/>
            <display value="Promethazine 25 MG Oral Tablet"/>
          </coding>
          <text value="Promethazine 25 MG Oral Tablet"/>
        </medicationCodeableConcept>
        <dosageInstruction>
          <timing>
            <repeat>
              <boundsPeriod>
                <start value="2004-10-28"/>
              </boundsPeriod>
              <frequency value="4"/>
              <period value="1"/>
              <periodUnits value="d"/>
            </repeat>
          </timing>
          <doseQuantity>
            <value value="1"/>
            <unit value="{tablet}"/>
            <system value="http://unitsofmeasure.org"/>
            <code value="{tablet}"/>
          </doseQuantity>
          <asNeededBoolean value="true"/>
          <text value="1 qid prn nausea"/>
        </dosageInstruction>
        <dispenseRequest>
          <numberOfRepeatsAllowed value="1"/>
          <quantity>
            <value value="20"/>
            <unit value="{tablet}"/>
            <system value="http://unitsofmeasure.org"/>
            <code value="{tablet}"/>
          </quantity>
          <expectedSupplyDuration>
            <value value="5"/>
            <unit value="days"/>
            <system value="http://unitsofmeasure.org"/>
            <code value="d"/>
          </expectedSupplyDuration>
        </dispenseRequest>
      </MedicationOrder>
    </resource>
    <request>
      <method value="PUT"/>
      <url value="MedicationOrder/smart-MedicationOrder-15"/>
    </request>
  </entry>
  <entry>
    <resource>
      <MedicationDispense>
        <meta>
          <tag>
            <system value="https://smarthealthit.org/tags"/>
            <code value="smart-8-2017"/>
          </tag>
        </meta>
        <id value="smart-MedicationDispense-180"/>
        <text>
          <status value="generated"/>
          <div xmlns="http://www.w3.org/1999/xhtml">
            Dispensed 20 tablets = 5 day supply of Promethazine 25 MG Oral Tablet
          </div>
        </text>
        <status value="completed"/>
        <patient>
          <reference value="Patient/smart-731673"/>
        </patient>
        <authorizingPrescription>
          <reference value="MedicationOrder/smart-MedicationOrder-15"/>
        </authorizingPrescription>
        <quantity>
          <value value="20"/>
          <unit value="tablets"/>
          <system value="http://unitsofmeasure.org"/>
          <code value="{tablets}"/>
        </quantity>
        <daysSupply>
          <value value="5"/>
          <unit value="days"/>
          <system value="http://unitsofmeasure.org"/>
          <code value="d"/>
        </daysSupply>
        <medicationCodeableConcept>
          <coding>
            <system value="http://www.nlm.nih.gov/research/umls/rxnorm"/>
            <code value="312664"/>
            <display value="Promethazine 25 MG Oral Tablet"/>
          </coding>
          <text value="Promethazine 25 MG Oral Tablet"/>
        </medicationCodeableConcept>
        <whenHandedOver value="2008-06-21"/>
      </MedicationDispense>
    </resource>
    <request>
      <method value="PUT"/>
      <url value="MedicationDispense/smart-MedicationDispense-180"/>
    </request>
  </entry>
  <entry>
    <resource>
      <MedicationOrder>
        <meta>
          <tag>
            <system value="https://smarthealthit.org/tags"/>
            <code value="smart-8-2017"/>
          </tag>
        </meta>
        <id value="smart-MedicationOrder-16"/>
        <text>
          <status value="generated"/>
          <div xmlns="http://www.w3.org/1999/xhtml">
            Trazodone 50 MG Oral Tablet (rxnorm: 856377)
          </div>
        </text>
        <status value="active"/>
        <patient>
          <reference value="Patient/smart-731673"/>
        </patient>
        <medicationCodeableConcept>
          <coding>
            <system value="http://www.nlm.nih.gov/research/umls/rxnorm"/>
            <code value="856377"/>
            <display value="Trazodone 50 MG Oral Tablet"/>
          </coding>
          <text value="Trazodone 50 MG Oral Tablet"/>
        </medicationCodeableConcept>
        <dosageInstruction>
          <timing>
            <repeat>
              <boundsPeriod>
                <start value="2004-11-03"/>
              </boundsPeriod>
              <frequency value="1"/>
              <period value="1"/>
              <periodUnits value="d"/>
            </repeat>
          </timing>
          <doseQuantity>
            <value value="1"/>
            <unit value="{tablet}"/>
            <system value="http://unitsofmeasure.org"/>
            <code value="{tablet}"/>
          </doseQuantity>
          <text value="1 qhs"/>
        </dosageInstruction>
        <dispenseRequest>
          <numberOfRepeatsAllowed value="1"/>
          <quantity>
            <value value="30"/>
            <unit value="{tablet}"/>
            <system value="http://unitsofmeasure.org"/>
            <code value="{tablet}"/>
          </quantity>
          <expectedSupplyDuration>
            <value value="30"/>
            <unit value="days"/>
            <system value="http://unitsofmeasure.org"/>
            <code value="d"/>
          </expectedSupplyDuration>
        </dispenseRequest>
      </MedicationOrder>
    </resource>
    <request>
      <method value="PUT"/>
      <url value="MedicationOrder/smart-MedicationOrder-16"/>
    </request>
  </entry>
  <entry>
    <resource>
      <MedicationDispense>
        <meta>
          <tag>
            <system value="https://smarthealthit.org/tags"/>
            <code value="smart-8-2017"/>
          </tag>
        </meta>
        <id value="smart-MedicationDispense-138"/>
        <text>
          <status value="generated"/>
          <div xmlns="http://www.w3.org/1999/xhtml">
            Dispensed 30 tablets = 30 day supply of Trazodone 50 MG Oral Tablet
          </div>
        </text>
        <status value="completed"/>
        <patient>
          <reference value="Patient/smart-731673"/>
        </patient>
        <authorizingPrescription>
          <reference value="MedicationOrder/smart-MedicationOrder-16"/>
        </authorizingPrescription>
        <quantity>
          <value value="30"/>
          <unit value="tablets"/>
          <system value="http://unitsofmeasure.org"/>
          <code value="{tablets}"/>
        </quantity>
        <daysSupply>
          <value value="30"/>
          <unit value="days"/>
          <system value="http://unitsofmeasure.org"/>
          <code value="d"/>
        </daysSupply>
        <medicationCodeableConcept>
          <coding>
            <system value="http://www.nlm.nih.gov/research/umls/rxnorm"/>
            <code value="856377"/>
            <display value="Trazodone 50 MG Oral Tablet"/>
          </coding>
          <text value="Trazodone 50 MG Oral Tablet"/>
        </medicationCodeableConcept>
        <whenHandedOver value="2008-11-05"/>
      </MedicationDispense>
    </resource>
    <request>
      <method value="PUT"/>
      <url value="MedicationDispense/smart-MedicationDispense-138"/>
    </request>
  </entry>
  <entry>
    <resource>
      <MedicationDispense>
        <meta>
          <tag>
            <system value="https://smarthealthit.org/tags"/>
            <code value="smart-8-2017"/>
          </tag>
        </meta>
        <id value="smart-MedicationDispense-153"/>
        <text>
          <status value="generated"/>
          <div xmlns="http://www.w3.org/1999/xhtml">
            Dispensed 30 tablets = 30 day supply of Trazodone 50 MG Oral Tablet
          </div>
        </text>
        <status value="completed"/>
        <patient>
          <reference value="Patient/smart-731673"/>
        </patient>
        <authorizingPrescription>
          <reference value="MedicationOrder/smart-MedicationOrder-16"/>
        </authorizingPrescription>
        <quantity>
          <value value="30"/>
          <unit value="tablets"/>
          <system value="http://unitsofmeasure.org"/>
          <code value="{tablets}"/>
        </quantity>
        <daysSupply>
          <value value="30"/>
          <unit value="days"/>
          <system value="http://unitsofmeasure.org"/>
          <code value="d"/>
        </daysSupply>
        <medicationCodeableConcept>
          <coding>
            <system value="http://www.nlm.nih.gov/research/umls/rxnorm"/>
            <code value="856377"/>
            <display value="Trazodone 50 MG Oral Tablet"/>
          </coding>
          <text value="Trazodone 50 MG Oral Tablet"/>
        </medicationCodeableConcept>
        <whenHandedOver value="2010-01-23"/>
      </MedicationDispense>
    </resource>
    <request>
      <method value="PUT"/>
      <url value="MedicationDispense/smart-MedicationDispense-153"/>
    </request>
  </entry>
  <entry>
    <resource>
      <MedicationDispense>
        <meta>
          <tag>
            <system value="https://smarthealthit.org/tags"/>
            <code value="smart-8-2017"/>
          </tag>
        </meta>
        <id value="smart-MedicationDispense-151"/>
        <text>
          <status value="generated"/>
          <div xmlns="http://www.w3.org/1999/xhtml">
            Dispensed 30 tablets = 30 day supply of Trazodone 50 MG Oral Tablet
          </div>
        </text>
        <status value="completed"/>
        <patient>
          <reference value="Patient/smart-731673"/>
        </patient>
        <authorizingPrescription>
          <reference value="MedicationOrder/smart-MedicationOrder-16"/>
        </authorizingPrescription>
        <quantity>
          <value value="30"/>
          <unit value="tablets"/>
          <system value="http://unitsofmeasure.org"/>
          <code value="{tablets}"/>
        </quantity>
        <daysSupply>
          <value value="30"/>
          <unit value="days"/>
          <system value="http://unitsofmeasure.org"/>
          <code value="d"/>
        </daysSupply>
        <medicationCodeableConcept>
          <coding>
            <system value="http://www.nlm.nih.gov/research/umls/rxnorm"/>
            <code value="856377"/>
            <display value="Trazodone 50 MG Oral Tablet"/>
          </coding>
          <text value="Trazodone 50 MG Oral Tablet"/>
        </medicationCodeableConcept>
        <whenHandedOver value="2009-11-23"/>
      </MedicationDispense>
    </resource>
    <request>
      <method value="PUT"/>
      <url value="MedicationDispense/smart-MedicationDispense-151"/>
    </request>
  </entry>
  <entry>
    <resource>
      <MedicationDispense>
        <meta>
          <tag>
            <system value="https://smarthealthit.org/tags"/>
            <code value="smart-8-2017"/>
          </tag>
        </meta>
        <id value="smart-MedicationDispense-149"/>
        <text>
          <status value="generated"/>
          <div xmlns="http://www.w3.org/1999/xhtml">
            Dispensed 30 tablets = 30 day supply of Trazodone 50 MG Oral Tablet
          </div>
        </text>
        <status value="completed"/>
        <patient>
          <reference value="Patient/smart-731673"/>
        </patient>
        <authorizingPrescription>
          <reference value="MedicationOrder/smart-MedicationOrder-16"/>
        </authorizingPrescription>
        <quantity>
          <value value="30"/>
          <unit value="tablets"/>
          <system value="http://unitsofmeasure.org"/>
          <code value="{tablets}"/>
        </quantity>
        <daysSupply>
          <value value="30"/>
          <unit value="days"/>
          <system value="http://unitsofmeasure.org"/>
          <code value="d"/>
        </daysSupply>
        <medicationCodeableConcept>
          <coding>
            <system value="http://www.nlm.nih.gov/research/umls/rxnorm"/>
            <code value="856377"/>
            <display value="Trazodone 50 MG Oral Tablet"/>
          </coding>
          <text value="Trazodone 50 MG Oral Tablet"/>
        </medicationCodeableConcept>
        <whenHandedOver value="2009-09-22"/>
      </MedicationDispense>
    </resource>
    <request>
      <method value="PUT"/>
      <url value="MedicationDispense/smart-MedicationDispense-149"/>
    </request>
  </entry>
  <entry>
    <resource>
      <MedicationDispense>
        <meta>
          <tag>
            <system value="https://smarthealthit.org/tags"/>
            <code value="smart-8-2017"/>
          </tag>
        </meta>
        <id value="smart-MedicationDispense-142"/>
        <text>
          <status value="generated"/>
          <div xmlns="http://www.w3.org/1999/xhtml">
            Dispensed 30 tablets = 30 day supply of Trazodone 50 MG Oral Tablet
          </div>
        </text>
        <status value="completed"/>
        <patient>
          <reference value="Patient/smart-731673"/>
        </patient>
        <authorizingPrescription>
          <reference value="MedicationOrder/smart-MedicationOrder-16"/>
        </authorizingPrescription>
        <quantity>
          <value value="30"/>
          <unit value="tablets"/>
          <system value="http://unitsofmeasure.org"/>
          <code value="{tablets}"/>
        </quantity>
        <daysSupply>
          <value value="30"/>
          <unit value="days"/>
          <system value="http://unitsofmeasure.org"/>
          <code value="d"/>
        </daysSupply>
        <medicationCodeableConcept>
          <coding>
            <system value="http://www.nlm.nih.gov/research/umls/rxnorm"/>
            <code value="856377"/>
            <display value="Trazodone 50 MG Oral Tablet"/>
          </coding>
          <text value="Trazodone 50 MG Oral Tablet"/>
        </medicationCodeableConcept>
        <whenHandedOver value="2009-03-17"/>
      </MedicationDispense>
    </resource>
    <request>
      <method value="PUT"/>
      <url value="MedicationDispense/smart-MedicationDispense-142"/>
    </request>
  </entry>
  <entry>
    <resource>
      <MedicationDispense>
        <meta>
          <tag>
            <system value="https://smarthealthit.org/tags"/>
            <code value="smart-8-2017"/>
          </tag>
        </meta>
        <id value="smart-MedicationDispense-147"/>
        <text>
          <status value="generated"/>
          <div xmlns="http://www.w3.org/1999/xhtml">
            Dispensed 30 tablets = 30 day supply of Trazodone 50 MG Oral Tablet
          </div>
        </text>
        <status value="completed"/>
        <patient>
          <reference value="Patient/smart-731673"/>
        </patient>
        <authorizingPrescription>
          <reference value="MedicationOrder/smart-MedicationOrder-16"/>
        </authorizingPrescription>
        <quantity>
          <value value="30"/>
          <unit value="tablets"/>
          <system value="http://unitsofmeasure.org"/>
          <code value="{tablets}"/>
        </quantity>
        <daysSupply>
          <value value="30"/>
          <unit value="days"/>
          <system value="http://unitsofmeasure.org"/>
          <code value="d"/>
        </daysSupply>
        <medicationCodeableConcept>
          <coding>
            <system value="http://www.nlm.nih.gov/research/umls/rxnorm"/>
            <code value="856377"/>
            <display value="Trazodone 50 MG Oral Tablet"/>
          </coding>
          <text value="Trazodone 50 MG Oral Tablet"/>
        </medicationCodeableConcept>
        <whenHandedOver value="2009-07-22"/>
      </MedicationDispense>
    </resource>
    <request>
      <method value="PUT"/>
      <url value="MedicationDispense/smart-MedicationDispense-147"/>
    </request>
  </entry>
  <entry>
    <resource>
      <MedicationDispense>
        <meta>
          <tag>
            <system value="https://smarthealthit.org/tags"/>
            <code value="smart-8-2017"/>
          </tag>
        </meta>
        <id value="smart-MedicationDispense-148"/>
        <text>
          <status value="generated"/>
          <div xmlns="http://www.w3.org/1999/xhtml">
            Dispensed 30 tablets = 30 day supply of Trazodone 50 MG Oral Tablet
          </div>
        </text>
        <status value="completed"/>
        <patient>
          <reference value="Patient/smart-731673"/>
        </patient>
        <authorizingPrescription>
          <reference value="MedicationOrder/smart-MedicationOrder-16"/>
        </authorizingPrescription>
        <quantity>
          <value value="30"/>
          <unit value="tablets"/>
          <system value="http://unitsofmeasure.org"/>
          <code value="{tablets}"/>
        </quantity>
        <daysSupply>
          <value value="30"/>
          <unit value="days"/>
          <system value="http://unitsofmeasure.org"/>
          <code value="d"/>
        </daysSupply>
        <medicationCodeableConcept>
          <coding>
            <system value="http://www.nlm.nih.gov/research/umls/rxnorm"/>
            <code value="856377"/>
            <display value="Trazodone 50 MG Oral Tablet"/>
          </coding>
          <text value="Trazodone 50 MG Oral Tablet"/>
        </medicationCodeableConcept>
        <whenHandedOver value="2009-08-21"/>
      </MedicationDispense>
    </resource>
    <request>
      <method value="PUT"/>
      <url value="MedicationDispense/smart-MedicationDispense-148"/>
    </request>
  </entry>
  <entry>
    <resource>
      <MedicationDispense>
        <meta>
          <tag>
            <system value="https://smarthealthit.org/tags"/>
            <code value="smart-8-2017"/>
          </tag>
        </meta>
        <id value="smart-MedicationDispense-136"/>
        <text>
          <status value="generated"/>
          <div xmlns="http://www.w3.org/1999/xhtml">
            Dispensed 30 tablets = 30 day supply of Trazodone 50 MG Oral Tablet
          </div>
        </text>
        <status value="completed"/>
        <patient>
          <reference value="Patient/smart-731673"/>
        </patient>
        <authorizingPrescription>
          <reference value="MedicationOrder/smart-MedicationOrder-16"/>
        </authorizingPrescription>
        <quantity>
          <value value="30"/>
          <unit value="tablets"/>
          <system value="http://unitsofmeasure.org"/>
          <code value="{tablets}"/>
        </quantity>
        <daysSupply>
          <value value="30"/>
          <unit value="days"/>
          <system value="http://unitsofmeasure.org"/>
          <code value="d"/>
        </daysSupply>
        <medicationCodeableConcept>
          <coding>
            <system value="http://www.nlm.nih.gov/research/umls/rxnorm"/>
            <code value="856377"/>
            <display value="Trazodone 50 MG Oral Tablet"/>
          </coding>
          <text value="Trazodone 50 MG Oral Tablet"/>
        </medicationCodeableConcept>
        <whenHandedOver value="2008-08-28"/>
      </MedicationDispense>
    </resource>
    <request>
      <method value="PUT"/>
      <url value="MedicationDispense/smart-MedicationDispense-136"/>
    </request>
  </entry>
  <entry>
    <resource>
      <MedicationDispense>
        <meta>
          <tag>
            <system value="https://smarthealthit.org/tags"/>
            <code value="smart-8-2017"/>
          </tag>
        </meta>
        <id value="smart-MedicationDispense-143"/>
        <text>
          <status value="generated"/>
          <div xmlns="http://www.w3.org/1999/xhtml">
            Dispensed 30 tablets = 30 day supply of Trazodone 50 MG Oral Tablet
          </div>
        </text>
        <status value="completed"/>
        <patient>
          <reference value="Patient/smart-731673"/>
        </patient>
        <authorizingPrescription>
          <reference value="MedicationOrder/smart-MedicationOrder-16"/>
        </authorizingPrescription>
        <quantity>
          <value value="30"/>
          <unit value="tablets"/>
          <system value="http://unitsofmeasure.org"/>
          <code value="{tablets}"/>
        </quantity>
        <daysSupply>
          <value value="30"/>
          <unit value="days"/>
          <system value="http://unitsofmeasure.org"/>
          <code value="d"/>
        </daysSupply>
        <medicationCodeableConcept>
          <coding>
            <system value="http://www.nlm.nih.gov/research/umls/rxnorm"/>
            <code value="856377"/>
            <display value="Trazodone 50 MG Oral Tablet"/>
          </coding>
          <text value="Trazodone 50 MG Oral Tablet"/>
        </medicationCodeableConcept>
        <whenHandedOver value="2009-03-18"/>
      </MedicationDispense>
    </resource>
    <request>
      <method value="PUT"/>
      <url value="MedicationDispense/smart-MedicationDispense-143"/>
    </request>
  </entry>
  <entry>
    <resource>
      <MedicationDispense>
        <meta>
          <tag>
            <system value="https://smarthealthit.org/tags"/>
            <code value="smart-8-2017"/>
          </tag>
        </meta>
        <id value="smart-MedicationDispense-134"/>
        <text>
          <status value="generated"/>
          <div xmlns="http://www.w3.org/1999/xhtml">
            Dispensed 30 tablets = 30 day supply of Trazodone 50 MG Oral Tablet
          </div>
        </text>
        <status value="completed"/>
        <patient>
          <reference value="Patient/smart-731673"/>
        </patient>
        <authorizingPrescription>
          <reference value="MedicationOrder/smart-MedicationOrder-16"/>
        </authorizingPrescription>
        <quantity>
          <value value="30"/>
          <unit value="tablets"/>
          <system value="http://unitsofmeasure.org"/>
          <code value="{tablets}"/>
        </quantity>
        <daysSupply>
          <value value="30"/>
          <unit value="days"/>
          <system value="http://unitsofmeasure.org"/>
          <code value="d"/>
        </daysSupply>
        <medicationCodeableConcept>
          <coding>
            <system value="http://www.nlm.nih.gov/research/umls/rxnorm"/>
            <code value="856377"/>
            <display value="Trazodone 50 MG Oral Tablet"/>
          </coding>
          <text value="Trazodone 50 MG Oral Tablet"/>
        </medicationCodeableConcept>
        <whenHandedOver value="2008-06-27"/>
      </MedicationDispense>
    </resource>
    <request>
      <method value="PUT"/>
      <url value="MedicationDispense/smart-MedicationDispense-134"/>
    </request>
  </entry>
  <entry>
    <resource>
      <MedicationDispense>
        <meta>
          <tag>
            <system value="https://smarthealthit.org/tags"/>
            <code value="smart-8-2017"/>
          </tag>
        </meta>
        <id value="smart-MedicationDispense-140"/>
        <text>
          <status value="generated"/>
          <div xmlns="http://www.w3.org/1999/xhtml">
            Dispensed 30 tablets = 30 day supply of Trazodone 50 MG Oral Tablet
          </div>
        </text>
        <status value="completed"/>
        <patient>
          <reference value="Patient/smart-731673"/>
        </patient>
        <authorizingPrescription>
          <reference value="MedicationOrder/smart-MedicationOrder-16"/>
        </authorizingPrescription>
        <quantity>
          <value value="30"/>
          <unit value="tablets"/>
          <system value="http://unitsofmeasure.org"/>
          <code value="{tablets}"/>
        </quantity>
        <daysSupply>
          <value value="30"/>
          <unit value="days"/>
          <system value="http://unitsofmeasure.org"/>
          <code value="d"/>
        </daysSupply>
        <medicationCodeableConcept>
          <coding>
            <system value="http://www.nlm.nih.gov/research/umls/rxnorm"/>
            <code value="856377"/>
            <display value="Trazodone 50 MG Oral Tablet"/>
          </coding>
          <text value="Trazodone 50 MG Oral Tablet"/>
        </medicationCodeableConcept>
        <whenHandedOver value="2009-01-08"/>
      </MedicationDispense>
    </resource>
    <request>
      <method value="PUT"/>
      <url value="MedicationDispense/smart-MedicationDispense-140"/>
    </request>
  </entry>
  <entry>
    <resource>
      <MedicationDispense>
        <meta>
          <tag>
            <system value="https://smarthealthit.org/tags"/>
            <code value="smart-8-2017"/>
          </tag>
        </meta>
        <id value="smart-MedicationDispense-145"/>
        <text>
          <status value="generated"/>
          <div xmlns="http://www.w3.org/1999/xhtml">
            Dispensed 30 tablets = 30 day supply of Trazodone 50 MG Oral Tablet
          </div>
        </text>
        <status value="completed"/>
        <patient>
          <reference value="Patient/smart-731673"/>
        </patient>
        <authorizingPrescription>
          <reference value="MedicationOrder/smart-MedicationOrder-16"/>
        </authorizingPrescription>
        <quantity>
          <value value="30"/>
          <unit value="tablets"/>
          <system value="http://unitsofmeasure.org"/>
          <code value="{tablets}"/>
        </quantity>
        <daysSupply>
          <value value="30"/>
          <unit value="days"/>
          <system value="http://unitsofmeasure.org"/>
          <code value="d"/>
        </daysSupply>
        <medicationCodeableConcept>
          <coding>
            <system value="http://www.nlm.nih.gov/research/umls/rxnorm"/>
            <code value="856377"/>
            <display value="Trazodone 50 MG Oral Tablet"/>
          </coding>
          <text value="Trazodone 50 MG Oral Tablet"/>
        </medicationCodeableConcept>
        <whenHandedOver value="2009-05-21"/>
      </MedicationDispense>
    </resource>
    <request>
      <method value="PUT"/>
      <url value="MedicationDispense/smart-MedicationDispense-145"/>
    </request>
  </entry>
  <entry>
    <resource>
      <MedicationDispense>
        <meta>
          <tag>
            <system value="https://smarthealthit.org/tags"/>
            <code value="smart-8-2017"/>
          </tag>
        </meta>
        <id value="smart-MedicationDispense-144"/>
        <text>
          <status value="generated"/>
          <div xmlns="http://www.w3.org/1999/xhtml">
            Dispensed 30 tablets = 30 day supply of Trazodone 50 MG Oral Tablet
          </div>
        </text>
        <status value="completed"/>
        <patient>
          <reference value="Patient/smart-731673"/>
        </patient>
        <authorizingPrescription>
          <reference value="MedicationOrder/smart-MedicationOrder-16"/>
        </authorizingPrescription>
        <quantity>
          <value value="30"/>
          <unit value="tablets"/>
          <system value="http://unitsofmeasure.org"/>
          <code value="{tablets}"/>
        </quantity>
        <daysSupply>
          <value value="30"/>
          <unit value="days"/>
          <system value="http://unitsofmeasure.org"/>
          <code value="d"/>
        </daysSupply>
        <medicationCodeableConcept>
          <coding>
            <system value="http://www.nlm.nih.gov/research/umls/rxnorm"/>
            <code value="856377"/>
            <display value="Trazodone 50 MG Oral Tablet"/>
          </coding>
          <text value="Trazodone 50 MG Oral Tablet"/>
        </medicationCodeableConcept>
        <whenHandedOver value="2009-04-19"/>
      </MedicationDispense>
    </resource>
    <request>
      <method value="PUT"/>
      <url value="MedicationDispense/smart-MedicationDispense-144"/>
    </request>
  </entry>
  <entry>
    <resource>
      <MedicationDispense>
        <meta>
          <tag>
            <system value="https://smarthealthit.org/tags"/>
            <code value="smart-8-2017"/>
          </tag>
        </meta>
        <id value="smart-MedicationDispense-152"/>
        <text>
          <status value="generated"/>
          <div xmlns="http://www.w3.org/1999/xhtml">
            Dispensed 30 tablets = 30 day supply of Trazodone 50 MG Oral Tablet
          </div>
        </text>
        <status value="completed"/>
        <patient>
          <reference value="Patient/smart-731673"/>
        </patient>
        <authorizingPrescription>
          <reference value="MedicationOrder/smart-MedicationOrder-16"/>
        </authorizingPrescription>
        <quantity>
          <value value="30"/>
          <unit value="tablets"/>
          <system value="http://unitsofmeasure.org"/>
          <code value="{tablets}"/>
        </quantity>
        <daysSupply>
          <value value="30"/>
          <unit value="days"/>
          <system value="http://unitsofmeasure.org"/>
          <code value="d"/>
        </daysSupply>
        <medicationCodeableConcept>
          <coding>
            <system value="http://www.nlm.nih.gov/research/umls/rxnorm"/>
            <code value="856377"/>
            <display value="Trazodone 50 MG Oral Tablet"/>
          </coding>
          <text value="Trazodone 50 MG Oral Tablet"/>
        </medicationCodeableConcept>
        <whenHandedOver value="2009-12-20"/>
      </MedicationDispense>
    </resource>
    <request>
      <method value="PUT"/>
      <url value="MedicationDispense/smart-MedicationDispense-152"/>
    </request>
  </entry>
  <entry>
    <resource>
      <MedicationDispense>
        <meta>
          <tag>
            <system value="https://smarthealthit.org/tags"/>
            <code value="smart-8-2017"/>
          </tag>
        </meta>
        <id value="smart-MedicationDispense-139"/>
        <text>
          <status value="generated"/>
          <div xmlns="http://www.w3.org/1999/xhtml">
            Dispensed 30 tablets = 30 day supply of Trazodone 50 MG Oral Tablet
          </div>
        </text>
        <status value="completed"/>
        <patient>
          <reference value="Patient/smart-731673"/>
        </patient>
        <authorizingPrescription>
          <reference value="MedicationOrder/smart-MedicationOrder-16"/>
        </authorizingPrescription>
        <quantity>
          <value value="30"/>
          <unit value="tablets"/>
          <system value="http://unitsofmeasure.org"/>
          <code value="{tablets}"/>
        </quantity>
        <daysSupply>
          <value value="30"/>
          <unit value="days"/>
          <system value="http://unitsofmeasure.org"/>
          <code value="d"/>
        </daysSupply>
        <medicationCodeableConcept>
          <coding>
            <system value="http://www.nlm.nih.gov/research/umls/rxnorm"/>
            <code value="856377"/>
            <display value="Trazodone 50 MG Oral Tablet"/>
          </coding>
          <text value="Trazodone 50 MG Oral Tablet"/>
        </medicationCodeableConcept>
        <whenHandedOver value="2008-12-08"/>
      </MedicationDispense>
    </resource>
    <request>
      <method value="PUT"/>
      <url value="MedicationDispense/smart-MedicationDispense-139"/>
    </request>
  </entry>
  <entry>
    <resource>
      <MedicationDispense>
        <meta>
          <tag>
            <system value="https://smarthealthit.org/tags"/>
            <code value="smart-8-2017"/>
          </tag>
        </meta>
        <id value="smart-MedicationDispense-146"/>
        <text>
          <status value="generated"/>
          <div xmlns="http://www.w3.org/1999/xhtml">
            Dispensed 30 tablets = 30 day supply of Trazodone 50 MG Oral Tablet
          </div>
        </text>
        <status value="completed"/>
        <patient>
          <reference value="Patient/smart-731673"/>
        </patient>
        <authorizingPrescription>
          <reference value="MedicationOrder/smart-MedicationOrder-16"/>
        </authorizingPrescription>
        <quantity>
          <value value="30"/>
          <unit value="tablets"/>
          <system value="http://unitsofmeasure.org"/>
          <code value="{tablets}"/>
        </quantity>
        <daysSupply>
          <value value="30"/>
          <unit value="days"/>
          <system value="http://unitsofmeasure.org"/>
          <code value="d"/>
        </daysSupply>
        <medicationCodeableConcept>
          <coding>
            <system value="http://www.nlm.nih.gov/research/umls/rxnorm"/>
            <code value="856377"/>
            <display value="Trazodone 50 MG Oral Tablet"/>
          </coding>
          <text value="Trazodone 50 MG Oral Tablet"/>
        </medicationCodeableConcept>
        <whenHandedOver value="2009-06-21"/>
      </MedicationDispense>
    </resource>
    <request>
      <method value="PUT"/>
      <url value="MedicationDispense/smart-MedicationDispense-146"/>
    </request>
  </entry>
  <entry>
    <resource>
      <MedicationDispense>
        <meta>
          <tag>
            <system value="https://smarthealthit.org/tags"/>
            <code value="smart-8-2017"/>
          </tag>
        </meta>
        <id value="smart-MedicationDispense-141"/>
        <text>
          <status value="generated"/>
          <div xmlns="http://www.w3.org/1999/xhtml">
            Dispensed 30 tablets = 30 day supply of Trazodone 50 MG Oral Tablet
          </div>
        </text>
        <status value="completed"/>
        <patient>
          <reference value="Patient/smart-731673"/>
        </patient>
        <authorizingPrescription>
          <reference value="MedicationOrder/smart-MedicationOrder-16"/>
        </authorizingPrescription>
        <quantity>
          <value value="30"/>
          <unit value="tablets"/>
          <system value="http://unitsofmeasure.org"/>
          <code value="{tablets}"/>
        </quantity>
        <daysSupply>
          <value value="30"/>
          <unit value="days"/>
          <system value="http://unitsofmeasure.org"/>
          <code value="d"/>
        </daysSupply>
        <medicationCodeableConcept>
          <coding>
            <system value="http://www.nlm.nih.gov/research/umls/rxnorm"/>
            <code value="856377"/>
            <display value="Trazodone 50 MG Oral Tablet"/>
          </coding>
          <text value="Trazodone 50 MG Oral Tablet"/>
        </medicationCodeableConcept>
        <whenHandedOver value="2009-02-15"/>
      </MedicationDispense>
    </resource>
    <request>
      <method value="PUT"/>
      <url value="MedicationDispense/smart-MedicationDispense-141"/>
    </request>
  </entry>
  <entry>
    <resource>
      <MedicationDispense>
        <meta>
          <tag>
            <system value="https://smarthealthit.org/tags"/>
            <code value="smart-8-2017"/>
          </tag>
        </meta>
        <id value="smart-MedicationDispense-135"/>
        <text>
          <status value="generated"/>
          <div xmlns="http://www.w3.org/1999/xhtml">
            Dispensed 30 tablets = 30 day supply of Trazodone 50 MG Oral Tablet
          </div>
        </text>
        <status value="completed"/>
        <patient>
          <reference value="Patient/smart-731673"/>
        </patient>
        <authorizingPrescription>
          <reference value="MedicationOrder/smart-MedicationOrder-16"/>
        </authorizingPrescription>
        <quantity>
          <value value="30"/>
          <unit value="tablets"/>
          <system value="http://unitsofmeasure.org"/>
          <code value="{tablets}"/>
        </quantity>
        <daysSupply>
          <value value="30"/>
          <unit value="days"/>
          <system value="http://unitsofmeasure.org"/>
          <code value="d"/>
        </daysSupply>
        <medicationCodeableConcept>
          <coding>
            <system value="http://www.nlm.nih.gov/research/umls/rxnorm"/>
            <code value="856377"/>
            <display value="Trazodone 50 MG Oral Tablet"/>
          </coding>
          <text value="Trazodone 50 MG Oral Tablet"/>
        </medicationCodeableConcept>
        <whenHandedOver value="2008-07-25"/>
      </MedicationDispense>
    </resource>
    <request>
      <method value="PUT"/>
      <url value="MedicationDispense/smart-MedicationDispense-135"/>
    </request>
  </entry>
  <entry>
    <resource>
      <MedicationDispense>
        <meta>
          <tag>
            <system value="https://smarthealthit.org/tags"/>
            <code value="smart-8-2017"/>
          </tag>
        </meta>
        <id value="smart-MedicationDispense-137"/>
        <text>
          <status value="generated"/>
          <div xmlns="http://www.w3.org/1999/xhtml">
            Dispensed 30 tablets = 30 day supply of Trazodone 50 MG Oral Tablet
          </div>
        </text>
        <status value="completed"/>
        <patient>
          <reference value="Patient/smart-731673"/>
        </patient>
        <authorizingPrescription>
          <reference value="MedicationOrder/smart-MedicationOrder-16"/>
        </authorizingPrescription>
        <quantity>
          <value value="30"/>
          <unit value="tablets"/>
          <system value="http://unitsofmeasure.org"/>
          <code value="{tablets}"/>
        </quantity>
        <daysSupply>
          <value value="30"/>
          <unit value="days"/>
          <system value="http://unitsofmeasure.org"/>
          <code value="d"/>
        </daysSupply>
        <medicationCodeableConcept>
          <coding>
            <system value="http://www.nlm.nih.gov/research/umls/rxnorm"/>
            <code value="856377"/>
            <display value="Trazodone 50 MG Oral Tablet"/>
          </coding>
          <text value="Trazodone 50 MG Oral Tablet"/>
        </medicationCodeableConcept>
        <whenHandedOver value="2008-09-28"/>
      </MedicationDispense>
    </resource>
    <request>
      <method value="PUT"/>
      <url value="MedicationDispense/smart-MedicationDispense-137"/>
    </request>
  </entry>
  <entry>
    <resource>
      <MedicationDispense>
        <meta>
          <tag>
            <system value="https://smarthealthit.org/tags"/>
            <code value="smart-8-2017"/>
          </tag>
        </meta>
        <id value="smart-MedicationDispense-150"/>
        <text>
          <status value="generated"/>
          <div xmlns="http://www.w3.org/1999/xhtml">
            Dispensed 30 tablets = 30 day supply of Trazodone 50 MG Oral Tablet
          </div>
        </text>
        <status value="completed"/>
        <patient>
          <reference value="Patient/smart-731673"/>
        </patient>
        <authorizingPrescription>
          <reference value="MedicationOrder/smart-MedicationOrder-16"/>
        </authorizingPrescription>
        <quantity>
          <value value="30"/>
          <unit value="tablets"/>
          <system value="http://unitsofmeasure.org"/>
          <code value="{tablets}"/>
        </quantity>
        <daysSupply>
          <value value="30"/>
          <unit value="days"/>
          <system value="http://unitsofmeasure.org"/>
          <code value="d"/>
        </daysSupply>
        <medicationCodeableConcept>
          <coding>
            <system value="http://www.nlm.nih.gov/research/umls/rxnorm"/>
            <code value="856377"/>
            <display value="Trazodone 50 MG Oral Tablet"/>
          </coding>
          <text value="Trazodone 50 MG Oral Tablet"/>
        </medicationCodeableConcept>
        <whenHandedOver value="2009-10-22"/>
      </MedicationDispense>
    </resource>
    <request>
      <method value="PUT"/>
      <url value="MedicationDispense/smart-MedicationDispense-150"/>
    </request>
  </entry>
  <entry>
    <resource>
      <MedicationOrder>
        <meta>
          <tag>
            <system value="https://smarthealthit.org/tags"/>
            <code value="smart-8-2017"/>
          </tag>
        </meta>
        <id value="smart-MedicationOrder-17"/>
        <text>
          <status value="generated"/>
          <div xmlns="http://www.w3.org/1999/xhtml">
            montelukast 10 MG Oral Tablet [Singulair] (rxnorm: 153892)
          </div>
        </text>
        <status value="active"/>
        <patient>
          <reference value="Patient/smart-731673"/>
        </patient>
        <medicationCodeableConcept>
          <coding>
            <system value="http://www.nlm.nih.gov/research/umls/rxnorm"/>
            <code value="153892"/>
            <display value="montelukast 10 MG Oral Tablet [Singulair]"/>
          </coding>
          <text value="montelukast 10 MG Oral Tablet [Singulair]"/>
        </medicationCodeableConcept>
        <dosageInstruction>
          <timing>
            <repeat>
              <boundsPeriod>
                <start value="2004-11-08"/>
              </boundsPeriod>
              <frequency value="1"/>
              <period value="1"/>
              <periodUnits value="d"/>
            </repeat>
          </timing>
          <doseQuantity>
            <value value="1"/>
            <unit value="{tablet}"/>
            <system value="http://unitsofmeasure.org"/>
            <code value="{tablet}"/>
          </doseQuantity>
          <text value="1 daily"/>
        </dosageInstruction>
        <dispenseRequest>
          <numberOfRepeatsAllowed value="1"/>
          <quantity>
            <value value="30"/>
            <unit value="{tablet}"/>
            <system value="http://unitsofmeasure.org"/>
            <code value="{tablet}"/>
          </quantity>
          <expectedSupplyDuration>
            <value value="30"/>
            <unit value="days"/>
            <system value="http://unitsofmeasure.org"/>
            <code value="d"/>
          </expectedSupplyDuration>
        </dispenseRequest>
      </MedicationOrder>
    </resource>
    <request>
      <method value="PUT"/>
      <url value="MedicationOrder/smart-MedicationOrder-17"/>
    </request>
  </entry>
  <entry>
    <resource>
      <MedicationDispense>
        <meta>
          <tag>
            <system value="https://smarthealthit.org/tags"/>
            <code value="smart-8-2017"/>
          </tag>
        </meta>
        <id value="smart-MedicationDispense-169"/>
        <text>
          <status value="generated"/>
          <div xmlns="http://www.w3.org/1999/xhtml">
            Dispensed 30 tablets = 30 day supply of montelukast 10 MG Oral Tablet [Singulair]
          </div>
        </text>
        <status value="completed"/>
        <patient>
          <reference value="Patient/smart-731673"/>
        </patient>
        <authorizingPrescription>
          <reference value="MedicationOrder/smart-MedicationOrder-17"/>
        </authorizingPrescription>
        <quantity>
          <value value="30"/>
          <unit value="tablets"/>
          <system value="http://unitsofmeasure.org"/>
          <code value="{tablets}"/>
        </quantity>
        <daysSupply>
          <value value="30"/>
          <unit value="days"/>
          <system value="http://unitsofmeasure.org"/>
          <code value="d"/>
        </daysSupply>
        <medicationCodeableConcept>
          <coding>
            <system value="http://www.nlm.nih.gov/research/umls/rxnorm"/>
            <code value="153892"/>
            <display value="montelukast 10 MG Oral Tablet [Singulair]"/>
          </coding>
          <text value="montelukast 10 MG Oral Tablet [Singulair]"/>
        </medicationCodeableConcept>
        <whenHandedOver value="2008-07-02"/>
      </MedicationDispense>
    </resource>
    <request>
      <method value="PUT"/>
      <url value="MedicationDispense/smart-MedicationDispense-169"/>
    </request>
  </entry>
  <entry>
    <resource>
      <MedicationOrder>
        <meta>
          <tag>
            <system value="https://smarthealthit.org/tags"/>
            <code value="smart-8-2017"/>
          </tag>
        </meta>
        <id value="smart-MedicationOrder-18"/>
        <text>
          <status value="generated"/>
          <div xmlns="http://www.w3.org/1999/xhtml">
            valdecoxib 20 MG Oral Tablet [Bextra] (rxnorm: 352063)
          </div>
        </text>
        <status value="active"/>
        <patient>
          <reference value="Patient/smart-731673"/>
        </patient>
        <medicationCodeableConcept>
          <coding>
            <system value="http://www.nlm.nih.gov/research/umls/rxnorm"/>
            <code value="352063"/>
            <display value="valdecoxib 20 MG Oral Tablet [Bextra]"/>
          </coding>
          <text value="valdecoxib 20 MG Oral Tablet [Bextra]"/>
        </medicationCodeableConcept>
        <dosageInstruction>
          <timing>
            <repeat>
              <boundsPeriod>
                <start value="2004-11-08"/>
              </boundsPeriod>
              <frequency value="1"/>
              <period value="1"/>
              <periodUnits value="d"/>
            </repeat>
          </timing>
          <doseQuantity>
            <value value="1"/>
            <unit value="{tablet}"/>
            <system value="http://unitsofmeasure.org"/>
            <code value="{tablet}"/>
          </doseQuantity>
          <asNeededBoolean value="true"/>
          <text value="1 daily prn pain"/>
        </dosageInstruction>
        <dispenseRequest>
          <numberOfRepeatsAllowed value="1"/>
          <quantity>
            <value value="30"/>
            <unit value="{tablet}"/>
            <system value="http://unitsofmeasure.org"/>
            <code value="{tablet}"/>
          </quantity>
          <expectedSupplyDuration>
            <value value="30"/>
            <unit value="days"/>
            <system value="http://unitsofmeasure.org"/>
            <code value="d"/>
          </expectedSupplyDuration>
        </dispenseRequest>
      </MedicationOrder>
    </resource>
    <request>
      <method value="PUT"/>
      <url value="MedicationOrder/smart-MedicationOrder-18"/>
    </request>
  </entry>
  <entry>
    <resource>
      <MedicationDispense>
        <meta>
          <tag>
            <system value="https://smarthealthit.org/tags"/>
            <code value="smart-8-2017"/>
          </tag>
        </meta>
        <id value="smart-MedicationDispense-185"/>
        <text>
          <status value="generated"/>
          <div xmlns="http://www.w3.org/1999/xhtml">
            Dispensed 30 tablets = 30 day supply of valdecoxib 20 MG Oral Tablet [Bextra]
          </div>
        </text>
        <status value="completed"/>
        <patient>
          <reference value="Patient/smart-731673"/>
        </patient>
        <authorizingPrescription>
          <reference value="MedicationOrder/smart-MedicationOrder-18"/>
        </authorizingPrescription>
        <quantity>
          <value value="30"/>
          <unit value="tablets"/>
          <system value="http://unitsofmeasure.org"/>
          <code value="{tablets}"/>
        </quantity>
        <daysSupply>
          <value value="30"/>
          <unit value="days"/>
          <system value="http://unitsofmeasure.org"/>
          <code value="d"/>
        </daysSupply>
        <medicationCodeableConcept>
          <coding>
            <system value="http://www.nlm.nih.gov/research/umls/rxnorm"/>
            <code value="352063"/>
            <display value="valdecoxib 20 MG Oral Tablet [Bextra]"/>
          </coding>
          <text value="valdecoxib 20 MG Oral Tablet [Bextra]"/>
        </medicationCodeableConcept>
        <whenHandedOver value="2008-07-02"/>
      </MedicationDispense>
    </resource>
    <request>
      <method value="PUT"/>
      <url value="MedicationDispense/smart-MedicationDispense-185"/>
    </request>
  </entry>
  <entry>
    <resource>
      <MedicationDispense>
        <meta>
          <tag>
            <system value="https://smarthealthit.org/tags"/>
            <code value="smart-8-2017"/>
          </tag>
        </meta>
        <id value="smart-MedicationDispense-186"/>
        <text>
          <status value="generated"/>
          <div xmlns="http://www.w3.org/1999/xhtml">
            Dispensed 30 tablets = 30 day supply of valdecoxib 20 MG Oral Tablet [Bextra]
          </div>
        </text>
        <status value="completed"/>
        <patient>
          <reference value="Patient/smart-731673"/>
        </patient>
        <authorizingPrescription>
          <reference value="MedicationOrder/smart-MedicationOrder-18"/>
        </authorizingPrescription>
        <quantity>
          <value value="30"/>
          <unit value="tablets"/>
          <system value="http://unitsofmeasure.org"/>
          <code value="{tablets}"/>
        </quantity>
        <daysSupply>
          <value value="30"/>
          <unit value="days"/>
          <system value="http://unitsofmeasure.org"/>
          <code value="d"/>
        </daysSupply>
        <medicationCodeableConcept>
          <coding>
            <system value="http://www.nlm.nih.gov/research/umls/rxnorm"/>
            <code value="352063"/>
            <display value="valdecoxib 20 MG Oral Tablet [Bextra]"/>
          </coding>
          <text value="valdecoxib 20 MG Oral Tablet [Bextra]"/>
        </medicationCodeableConcept>
        <whenHandedOver value="2008-08-30"/>
      </MedicationDispense>
    </resource>
    <request>
      <method value="PUT"/>
      <url value="MedicationDispense/smart-MedicationDispense-186"/>
    </request>
  </entry>
  <entry>
    <resource>
      <MedicationOrder>
        <meta>
          <tag>
            <system value="https://smarthealthit.org/tags"/>
            <code value="smart-8-2017"/>
          </tag>
        </meta>
        <id value="smart-MedicationOrder-19"/>
        <text>
          <status value="generated"/>
          <div xmlns="http://www.w3.org/1999/xhtml">
            Hydrochlorothiazide 25 MG / Triamterene 37.5 MG Oral Tablet (rxnorm: 310812)
          </div>
        </text>
        <status value="active"/>
        <patient>
          <reference value="Patient/smart-731673"/>
        </patient>
        <medicationCodeableConcept>
          <coding>
            <system value="http://www.nlm.nih.gov/research/umls/rxnorm"/>
            <code value="310812"/>
            <display value="Hydrochlorothiazide 25 MG / Triamterene 37.5 MG Oral Tablet"/>
          </coding>
          <text value="Hydrochlorothiazide 25 MG / Triamterene 37.5 MG Oral Tablet"/>
        </medicationCodeableConcept>
        <dosageInstruction>
          <timing>
            <repeat>
              <boundsPeriod>
                <start value="2004-11-18"/>
              </boundsPeriod>
              <frequency value="1"/>
              <period value="1"/>
              <periodUnits value="d"/>
            </repeat>
          </timing>
          <doseQuantity>
            <value value="1"/>
            <unit value="{tablet}"/>
            <system value="http://unitsofmeasure.org"/>
            <code value="{tablet}"/>
          </doseQuantity>
          <text value="1 daily"/>
        </dosageInstruction>
        <dispenseRequest>
          <numberOfRepeatsAllowed value="1"/>
          <quantity>
            <value value="30"/>
            <unit value="{tablet}"/>
            <system value="http://unitsofmeasure.org"/>
            <code value="{tablet}"/>
          </quantity>
          <expectedSupplyDuration>
            <value value="30"/>
            <unit value="days"/>
            <system value="http://unitsofmeasure.org"/>
            <code value="d"/>
          </expectedSupplyDuration>
        </dispenseRequest>
      </MedicationOrder>
    </resource>
    <request>
      <method value="PUT"/>
      <url value="MedicationOrder/smart-MedicationOrder-19"/>
    </request>
  </entry>
  <entry>
    <resource>
      <MedicationDispense>
        <meta>
          <tag>
            <system value="https://smarthealthit.org/tags"/>
            <code value="smart-8-2017"/>
          </tag>
        </meta>
        <id value="smart-MedicationDispense-167"/>
        <text>
          <status value="generated"/>
          <div xmlns="http://www.w3.org/1999/xhtml">
            Dispensed 30 tablets = 30 day supply of Hydrochlorothiazide 25 MG / Triamterene 37.5 MG Oral Tablet
          </div>
        </text>
        <status value="completed"/>
        <patient>
          <reference value="Patient/smart-731673"/>
        </patient>
        <authorizingPrescription>
          <reference value="MedicationOrder/smart-MedicationOrder-19"/>
        </authorizingPrescription>
        <quantity>
          <value value="30"/>
          <unit value="tablets"/>
          <system value="http://unitsofmeasure.org"/>
          <code value="{tablets}"/>
        </quantity>
        <daysSupply>
          <value value="30"/>
          <unit value="days"/>
          <system value="http://unitsofmeasure.org"/>
          <code value="d"/>
        </daysSupply>
        <medicationCodeableConcept>
          <coding>
            <system value="http://www.nlm.nih.gov/research/umls/rxnorm"/>
            <code value="310812"/>
            <display value="Hydrochlorothiazide 25 MG / Triamterene 37.5 MG Oral Tablet"/>
          </coding>
          <text value="Hydrochlorothiazide 25 MG / Triamterene 37.5 MG Oral Tablet"/>
        </medicationCodeableConcept>
        <whenHandedOver value="2010-01-23"/>
      </MedicationDispense>
    </resource>
    <request>
      <method value="PUT"/>
      <url value="MedicationDispense/smart-MedicationDispense-167"/>
    </request>
  </entry>
  <entry>
    <resource>
      <MedicationDispense>
        <meta>
          <tag>
            <system value="https://smarthealthit.org/tags"/>
            <code value="smart-8-2017"/>
          </tag>
        </meta>
        <id value="smart-MedicationDispense-160"/>
        <text>
          <status value="generated"/>
          <div xmlns="http://www.w3.org/1999/xhtml">
            Dispensed 30 tablets = 30 day supply of Hydrochlorothiazide 25 MG / Triamterene 37.5 MG Oral Tablet
          </div>
        </text>
        <status value="completed"/>
        <patient>
          <reference value="Patient/smart-731673"/>
        </patient>
        <authorizingPrescription>
          <reference value="MedicationOrder/smart-MedicationOrder-19"/>
        </authorizingPrescription>
        <quantity>
          <value value="30"/>
          <unit value="tablets"/>
          <system value="http://unitsofmeasure.org"/>
          <code value="{tablets}"/>
        </quantity>
        <daysSupply>
          <value value="30"/>
          <unit value="days"/>
          <system value="http://unitsofmeasure.org"/>
          <code value="d"/>
        </daysSupply>
        <medicationCodeableConcept>
          <coding>
            <system value="http://www.nlm.nih.gov/research/umls/rxnorm"/>
            <code value="310812"/>
            <display value="Hydrochlorothiazide 25 MG / Triamterene 37.5 MG Oral Tablet"/>
          </coding>
          <text value="Hydrochlorothiazide 25 MG / Triamterene 37.5 MG Oral Tablet"/>
        </medicationCodeableConcept>
        <whenHandedOver value="2008-07-12"/>
      </MedicationDispense>
    </resource>
    <request>
      <method value="PUT"/>
      <url value="MedicationDispense/smart-MedicationDispense-160"/>
    </request>
  </entry>
  <entry>
    <resource>
      <MedicationDispense>
        <meta>
          <tag>
            <system value="https://smarthealthit.org/tags"/>
            <code value="smart-8-2017"/>
          </tag>
        </meta>
        <id value="smart-MedicationDispense-165"/>
        <text>
          <status value="generated"/>
          <div xmlns="http://www.w3.org/1999/xhtml">
            Dispensed 30 tablets = 30 day supply of Hydrochlorothiazide 25 MG / Triamterene 37.5 MG Oral Tablet
          </div>
        </text>
        <status value="completed"/>
        <patient>
          <reference value="Patient/smart-731673"/>
        </patient>
        <authorizingPrescription>
          <reference value="MedicationOrder/smart-MedicationOrder-19"/>
        </authorizingPrescription>
        <quantity>
          <value value="30"/>
          <unit value="tablets"/>
          <system value="http://unitsofmeasure.org"/>
          <code value="{tablets}"/>
        </quantity>
        <daysSupply>
          <value value="30"/>
          <unit value="days"/>
          <system value="http://unitsofmeasure.org"/>
          <code value="d"/>
        </daysSupply>
        <medicationCodeableConcept>
          <coding>
            <system value="http://www.nlm.nih.gov/research/umls/rxnorm"/>
            <code value="310812"/>
            <display value="Hydrochlorothiazide 25 MG / Triamterene 37.5 MG Oral Tablet"/>
          </coding>
          <text value="Hydrochlorothiazide 25 MG / Triamterene 37.5 MG Oral Tablet"/>
        </medicationCodeableConcept>
        <whenHandedOver value="2009-07-22"/>
      </MedicationDispense>
    </resource>
    <request>
      <method value="PUT"/>
      <url value="MedicationDispense/smart-MedicationDispense-165"/>
    </request>
  </entry>
  <entry>
    <resource>
      <MedicationDispense>
        <meta>
          <tag>
            <system value="https://smarthealthit.org/tags"/>
            <code value="smart-8-2017"/>
          </tag>
        </meta>
        <id value="smart-MedicationDispense-164"/>
        <text>
          <status value="generated"/>
          <div xmlns="http://www.w3.org/1999/xhtml">
            Dispensed 30 tablets = 30 day supply of Hydrochlorothiazide 25 MG / Triamterene 37.5 MG Oral Tablet
          </div>
        </text>
        <status value="completed"/>
        <patient>
          <reference value="Patient/smart-731673"/>
        </patient>
        <authorizingPrescription>
          <reference value="MedicationOrder/smart-MedicationOrder-19"/>
        </authorizingPrescription>
        <quantity>
          <value value="30"/>
          <unit value="tablets"/>
          <system value="http://unitsofmeasure.org"/>
          <code value="{tablets}"/>
        </quantity>
        <daysSupply>
          <value value="30"/>
          <unit value="days"/>
          <system value="http://unitsofmeasure.org"/>
          <code value="d"/>
        </daysSupply>
        <medicationCodeableConcept>
          <coding>
            <system value="http://www.nlm.nih.gov/research/umls/rxnorm"/>
            <code value="310812"/>
            <display value="Hydrochlorothiazide 25 MG / Triamterene 37.5 MG Oral Tablet"/>
          </coding>
          <text value="Hydrochlorothiazide 25 MG / Triamterene 37.5 MG Oral Tablet"/>
        </medicationCodeableConcept>
        <whenHandedOver value="2009-05-17"/>
      </MedicationDispense>
    </resource>
    <request>
      <method value="PUT"/>
      <url value="MedicationDispense/smart-MedicationDispense-164"/>
    </request>
  </entry>
  <entry>
    <resource>
      <MedicationDispense>
        <meta>
          <tag>
            <system value="https://smarthealthit.org/tags"/>
            <code value="smart-8-2017"/>
          </tag>
        </meta>
        <id value="smart-MedicationDispense-163"/>
        <text>
          <status value="generated"/>
          <div xmlns="http://www.w3.org/1999/xhtml">
            Dispensed 30 tablets = 30 day supply of Hydrochlorothiazide 25 MG / Triamterene 37.5 MG Oral Tablet
          </div>
        </text>
        <status value="completed"/>
        <patient>
          <reference value="Patient/smart-731673"/>
        </patient>
        <authorizingPrescription>
          <reference value="MedicationOrder/smart-MedicationOrder-19"/>
        </authorizingPrescription>
        <quantity>
          <value value="30"/>
          <unit value="tablets"/>
          <system value="http://unitsofmeasure.org"/>
          <code value="{tablets}"/>
        </quantity>
        <daysSupply>
          <value value="30"/>
          <unit value="days"/>
          <system value="http://unitsofmeasure.org"/>
          <code value="d"/>
        </daysSupply>
        <medicationCodeableConcept>
          <coding>
            <system value="http://www.nlm.nih.gov/research/umls/rxnorm"/>
            <code value="310812"/>
            <display value="Hydrochlorothiazide 25 MG / Triamterene 37.5 MG Oral Tablet"/>
          </coding>
          <text value="Hydrochlorothiazide 25 MG / Triamterene 37.5 MG Oral Tablet"/>
        </medicationCodeableConcept>
        <whenHandedOver value="2009-02-15"/>
      </MedicationDispense>
    </resource>
    <request>
      <method value="PUT"/>
      <url value="MedicationDispense/smart-MedicationDispense-163"/>
    </request>
  </entry>
  <entry>
    <resource>
      <MedicationDispense>
        <meta>
          <tag>
            <system value="https://smarthealthit.org/tags"/>
            <code value="smart-8-2017"/>
          </tag>
        </meta>
        <id value="smart-MedicationDispense-161"/>
        <text>
          <status value="generated"/>
          <div xmlns="http://www.w3.org/1999/xhtml">
            Dispensed 30 tablets = 30 day supply of Hydrochlorothiazide 25 MG / Triamterene 37.5 MG Oral Tablet
          </div>
        </text>
        <status value="completed"/>
        <patient>
          <reference value="Patient/smart-731673"/>
        </patient>
        <authorizingPrescription>
          <reference value="MedicationOrder/smart-MedicationOrder-19"/>
        </authorizingPrescription>
        <quantity>
          <value value="30"/>
          <unit value="tablets"/>
          <system value="http://unitsofmeasure.org"/>
          <code value="{tablets}"/>
        </quantity>
        <daysSupply>
          <value value="30"/>
          <unit value="days"/>
          <system value="http://unitsofmeasure.org"/>
          <code value="d"/>
        </daysSupply>
        <medicationCodeableConcept>
          <coding>
            <system value="http://www.nlm.nih.gov/research/umls/rxnorm"/>
            <code value="310812"/>
            <display value="Hydrochlorothiazide 25 MG / Triamterene 37.5 MG Oral Tablet"/>
          </coding>
          <text value="Hydrochlorothiazide 25 MG / Triamterene 37.5 MG Oral Tablet"/>
        </medicationCodeableConcept>
        <whenHandedOver value="2008-09-28"/>
      </MedicationDispense>
    </resource>
    <request>
      <method value="PUT"/>
      <url value="MedicationDispense/smart-MedicationDispense-161"/>
    </request>
  </entry>
  <entry>
    <resource>
      <MedicationDispense>
        <meta>
          <tag>
            <system value="https://smarthealthit.org/tags"/>
            <code value="smart-8-2017"/>
          </tag>
        </meta>
        <id value="smart-MedicationDispense-162"/>
        <text>
          <status value="generated"/>
          <div xmlns="http://www.w3.org/1999/xhtml">
            Dispensed 30 tablets = 30 day supply of Hydrochlorothiazide 25 MG / Triamterene 37.5 MG Oral Tablet
          </div>
        </text>
        <status value="completed"/>
        <patient>
          <reference value="Patient/smart-731673"/>
        </patient>
        <authorizingPrescription>
          <reference value="MedicationOrder/smart-MedicationOrder-19"/>
        </authorizingPrescription>
        <quantity>
          <value value="30"/>
          <unit value="tablets"/>
          <system value="http://unitsofmeasure.org"/>
          <code value="{tablets}"/>
        </quantity>
        <daysSupply>
          <value value="30"/>
          <unit value="days"/>
          <system value="http://unitsofmeasure.org"/>
          <code value="d"/>
        </daysSupply>
        <medicationCodeableConcept>
          <coding>
            <system value="http://www.nlm.nih.gov/research/umls/rxnorm"/>
            <code value="310812"/>
            <display value="Hydrochlorothiazide 25 MG / Triamterene 37.5 MG Oral Tablet"/>
          </coding>
          <text value="Hydrochlorothiazide 25 MG / Triamterene 37.5 MG Oral Tablet"/>
        </medicationCodeableConcept>
        <whenHandedOver value="2008-12-08"/>
      </MedicationDispense>
    </resource>
    <request>
      <method value="PUT"/>
      <url value="MedicationDispense/smart-MedicationDispense-162"/>
    </request>
  </entry>
  <entry>
    <resource>
      <MedicationDispense>
        <meta>
          <tag>
            <system value="https://smarthealthit.org/tags"/>
            <code value="smart-8-2017"/>
          </tag>
        </meta>
        <id value="smart-MedicationDispense-166"/>
        <text>
          <status value="generated"/>
          <div xmlns="http://www.w3.org/1999/xhtml">
            Dispensed 30 tablets = 30 day supply of Hydrochlorothiazide 25 MG / Triamterene 37.5 MG Oral Tablet
          </div>
        </text>
        <status value="completed"/>
        <patient>
          <reference value="Patient/smart-731673"/>
        </patient>
        <authorizingPrescription>
          <reference value="MedicationOrder/smart-MedicationOrder-19"/>
        </authorizingPrescription>
        <quantity>
          <value value="30"/>
          <unit value="tablets"/>
          <system value="http://unitsofmeasure.org"/>
          <code value="{tablets}"/>
        </quantity>
        <daysSupply>
          <value value="30"/>
          <unit value="days"/>
          <system value="http://unitsofmeasure.org"/>
          <code value="d"/>
        </daysSupply>
        <medicationCodeableConcept>
          <coding>
            <system value="http://www.nlm.nih.gov/research/umls/rxnorm"/>
            <code value="310812"/>
            <display value="Hydrochlorothiazide 25 MG / Triamterene 37.5 MG Oral Tablet"/>
          </coding>
          <text value="Hydrochlorothiazide 25 MG / Triamterene 37.5 MG Oral Tablet"/>
        </medicationCodeableConcept>
        <whenHandedOver value="2009-10-25"/>
      </MedicationDispense>
    </resource>
    <request>
      <method value="PUT"/>
      <url value="MedicationDispense/smart-MedicationDispense-166"/>
    </request>
  </entry>
  <entry>
    <resource>
      <MedicationOrder>
        <meta>
          <tag>
            <system value="https://smarthealthit.org/tags"/>
            <code value="smart-8-2017"/>
          </tag>
        </meta>
        <id value="smart-MedicationOrder-20"/>
        <text>
          <status value="generated"/>
          <div xmlns="http://www.w3.org/1999/xhtml">
            Lisinopril 20 MG Oral Tablet (rxnorm: 314077)
          </div>
        </text>
        <status value="active"/>
        <patient>
          <reference value="Patient/smart-731673"/>
        </patient>
        <medicationCodeableConcept>
          <coding>
            <system value="http://www.nlm.nih.gov/research/umls/rxnorm"/>
            <code value="314077"/>
            <display value="Lisinopril 20 MG Oral Tablet"/>
          </coding>
          <text value="Lisinopril 20 MG Oral Tablet"/>
        </medicationCodeableConcept>
        <dosageInstruction>
          <timing>
            <repeat>
              <boundsPeriod>
                <start value="2004-11-18"/>
              </boundsPeriod>
              <frequency value="1"/>
              <period value="1"/>
              <periodUnits value="d"/>
            </repeat>
          </timing>
          <doseQuantity>
            <value value="1"/>
            <unit value="{tablet}"/>
            <system value="http://unitsofmeasure.org"/>
            <code value="{tablet}"/>
          </doseQuantity>
          <text value="1 daily"/>
        </dosageInstruction>
        <dispenseRequest>
          <numberOfRepeatsAllowed value="1"/>
          <quantity>
            <value value="30"/>
            <unit value="{tablet}"/>
            <system value="http://unitsofmeasure.org"/>
            <code value="{tablet}"/>
          </quantity>
          <expectedSupplyDuration>
            <value value="30"/>
            <unit value="days"/>
            <system value="http://unitsofmeasure.org"/>
            <code value="d"/>
          </expectedSupplyDuration>
        </dispenseRequest>
      </MedicationOrder>
    </resource>
    <request>
      <method value="PUT"/>
      <url value="MedicationOrder/smart-MedicationOrder-20"/>
    </request>
  </entry>
  <entry>
    <resource>
      <MedicationDispense>
        <meta>
          <tag>
            <system value="https://smarthealthit.org/tags"/>
            <code value="smart-8-2017"/>
          </tag>
        </meta>
        <id value="smart-MedicationDispense-172"/>
        <text>
          <status value="generated"/>
          <div xmlns="http://www.w3.org/1999/xhtml">
            Dispensed 30 tablets = 30 day supply of Lisinopril 20 MG Oral Tablet
          </div>
        </text>
        <status value="completed"/>
        <patient>
          <reference value="Patient/smart-731673"/>
        </patient>
        <authorizingPrescription>
          <reference value="MedicationOrder/smart-MedicationOrder-20"/>
        </authorizingPrescription>
        <quantity>
          <value value="30"/>
          <unit value="tablets"/>
          <system value="http://unitsofmeasure.org"/>
          <code value="{tablets}"/>
        </quantity>
        <daysSupply>
          <value value="30"/>
          <unit value="days"/>
          <system value="http://unitsofmeasure.org"/>
          <code value="d"/>
        </daysSupply>
        <medicationCodeableConcept>
          <coding>
            <system value="http://www.nlm.nih.gov/research/umls/rxnorm"/>
            <code value="314077"/>
            <display value="Lisinopril 20 MG Oral Tablet"/>
          </coding>
          <text value="Lisinopril 20 MG Oral Tablet"/>
        </medicationCodeableConcept>
        <whenHandedOver value="2008-07-12"/>
      </MedicationDispense>
    </resource>
    <request>
      <method value="PUT"/>
      <url value="MedicationDispense/smart-MedicationDispense-172"/>
    </request>
  </entry>
  <entry>
    <resource>
      <MedicationDispense>
        <meta>
          <tag>
            <system value="https://smarthealthit.org/tags"/>
            <code value="smart-8-2017"/>
          </tag>
        </meta>
        <id value="smart-MedicationDispense-176"/>
        <text>
          <status value="generated"/>
          <div xmlns="http://www.w3.org/1999/xhtml">
            Dispensed 30 tablets = 30 day supply of Lisinopril 20 MG Oral Tablet
          </div>
        </text>
        <status value="completed"/>
        <patient>
          <reference value="Patient/smart-731673"/>
        </patient>
        <authorizingPrescription>
          <reference value="MedicationOrder/smart-MedicationOrder-20"/>
        </authorizingPrescription>
        <quantity>
          <value value="30"/>
          <unit value="tablets"/>
          <system value="http://unitsofmeasure.org"/>
          <code value="{tablets}"/>
        </quantity>
        <daysSupply>
          <value value="30"/>
          <unit value="days"/>
          <system value="http://unitsofmeasure.org"/>
          <code value="d"/>
        </daysSupply>
        <medicationCodeableConcept>
          <coding>
            <system value="http://www.nlm.nih.gov/research/umls/rxnorm"/>
            <code value="314077"/>
            <display value="Lisinopril 20 MG Oral Tablet"/>
          </coding>
          <text value="Lisinopril 20 MG Oral Tablet"/>
        </medicationCodeableConcept>
        <whenHandedOver value="2009-05-17"/>
      </MedicationDispense>
    </resource>
    <request>
      <method value="PUT"/>
      <url value="MedicationDispense/smart-MedicationDispense-176"/>
    </request>
  </entry>
  <entry>
    <resource>
      <MedicationDispense>
        <meta>
          <tag>
            <system value="https://smarthealthit.org/tags"/>
            <code value="smart-8-2017"/>
          </tag>
        </meta>
        <id value="smart-MedicationDispense-178"/>
        <text>
          <status value="generated"/>
          <div xmlns="http://www.w3.org/1999/xhtml">
            Dispensed 30 tablets = 30 day supply of Lisinopril 20 MG Oral Tablet
          </div>
        </text>
        <status value="completed"/>
        <patient>
          <reference value="Patient/smart-731673"/>
        </patient>
        <authorizingPrescription>
          <reference value="MedicationOrder/smart-MedicationOrder-20"/>
        </authorizingPrescription>
        <quantity>
          <value value="30"/>
          <unit value="tablets"/>
          <system value="http://unitsofmeasure.org"/>
          <code value="{tablets}"/>
        </quantity>
        <daysSupply>
          <value value="30"/>
          <unit value="days"/>
          <system value="http://unitsofmeasure.org"/>
          <code value="d"/>
        </daysSupply>
        <medicationCodeableConcept>
          <coding>
            <system value="http://www.nlm.nih.gov/research/umls/rxnorm"/>
            <code value="314077"/>
            <display value="Lisinopril 20 MG Oral Tablet"/>
          </coding>
          <text value="Lisinopril 20 MG Oral Tablet"/>
        </medicationCodeableConcept>
        <whenHandedOver value="2009-10-25"/>
      </MedicationDispense>
    </resource>
    <request>
      <method value="PUT"/>
      <url value="MedicationDispense/smart-MedicationDispense-178"/>
    </request>
  </entry>
  <entry>
    <resource>
      <MedicationDispense>
        <meta>
          <tag>
            <system value="https://smarthealthit.org/tags"/>
            <code value="smart-8-2017"/>
          </tag>
        </meta>
        <id value="smart-MedicationDispense-177"/>
        <text>
          <status value="generated"/>
          <div xmlns="http://www.w3.org/1999/xhtml">
            Dispensed 30 tablets = 30 day supply of Lisinopril 20 MG Oral Tablet
          </div>
        </text>
        <status value="completed"/>
        <patient>
          <reference value="Patient/smart-731673"/>
        </patient>
        <authorizingPrescription>
          <reference value="MedicationOrder/smart-MedicationOrder-20"/>
        </authorizingPrescription>
        <quantity>
          <value value="30"/>
          <unit value="tablets"/>
          <system value="http://unitsofmeasure.org"/>
          <code value="{tablets}"/>
        </quantity>
        <daysSupply>
          <value value="30"/>
          <unit value="days"/>
          <system value="http://unitsofmeasure.org"/>
          <code value="d"/>
        </daysSupply>
        <medicationCodeableConcept>
          <coding>
            <system value="http://www.nlm.nih.gov/research/umls/rxnorm"/>
            <code value="314077"/>
            <display value="Lisinopril 20 MG Oral Tablet"/>
          </coding>
          <text value="Lisinopril 20 MG Oral Tablet"/>
        </medicationCodeableConcept>
        <whenHandedOver value="2009-07-22"/>
      </MedicationDispense>
    </resource>
    <request>
      <method value="PUT"/>
      <url value="MedicationDispense/smart-MedicationDispense-177"/>
    </request>
  </entry>
  <entry>
    <resource>
      <MedicationDispense>
        <meta>
          <tag>
            <system value="https://smarthealthit.org/tags"/>
            <code value="smart-8-2017"/>
          </tag>
        </meta>
        <id value="smart-MedicationDispense-173"/>
        <text>
          <status value="generated"/>
          <div xmlns="http://www.w3.org/1999/xhtml">
            Dispensed 30 tablets = 30 day supply of Lisinopril 20 MG Oral Tablet
          </div>
        </text>
        <status value="completed"/>
        <patient>
          <reference value="Patient/smart-731673"/>
        </patient>
        <authorizingPrescription>
          <reference value="MedicationOrder/smart-MedicationOrder-20"/>
        </authorizingPrescription>
        <quantity>
          <value value="30"/>
          <unit value="tablets"/>
          <system value="http://unitsofmeasure.org"/>
          <code value="{tablets}"/>
        </quantity>
        <daysSupply>
          <value value="30"/>
          <unit value="days"/>
          <system value="http://unitsofmeasure.org"/>
          <code value="d"/>
        </daysSupply>
        <medicationCodeableConcept>
          <coding>
            <system value="http://www.nlm.nih.gov/research/umls/rxnorm"/>
            <code value="314077"/>
            <display value="Lisinopril 20 MG Oral Tablet"/>
          </coding>
          <text value="Lisinopril 20 MG Oral Tablet"/>
        </medicationCodeableConcept>
        <whenHandedOver value="2008-09-28"/>
      </MedicationDispense>
    </resource>
    <request>
      <method value="PUT"/>
      <url value="MedicationDispense/smart-MedicationDispense-173"/>
    </request>
  </entry>
  <entry>
    <resource>
      <MedicationDispense>
        <meta>
          <tag>
            <system value="https://smarthealthit.org/tags"/>
            <code value="smart-8-2017"/>
          </tag>
        </meta>
        <id value="smart-MedicationDispense-174"/>
        <text>
          <status value="generated"/>
          <div xmlns="http://www.w3.org/1999/xhtml">
            Dispensed 30 tablets = 30 day supply of Lisinopril 20 MG Oral Tablet
          </div>
        </text>
        <status value="completed"/>
        <patient>
          <reference value="Patient/smart-731673"/>
        </patient>
        <authorizingPrescription>
          <reference value="MedicationOrder/smart-MedicationOrder-20"/>
        </authorizingPrescription>
        <quantity>
          <value value="30"/>
          <unit value="tablets"/>
          <system value="http://unitsofmeasure.org"/>
          <code value="{tablets}"/>
        </quantity>
        <daysSupply>
          <value value="30"/>
          <unit value="days"/>
          <system value="http://unitsofmeasure.org"/>
          <code value="d"/>
        </daysSupply>
        <medicationCodeableConcept>
          <coding>
            <system value="http://www.nlm.nih.gov/research/umls/rxnorm"/>
            <code value="314077"/>
            <display value="Lisinopril 20 MG Oral Tablet"/>
          </coding>
          <text value="Lisinopril 20 MG Oral Tablet"/>
        </medicationCodeableConcept>
        <whenHandedOver value="2008-12-08"/>
      </MedicationDispense>
    </resource>
    <request>
      <method value="PUT"/>
      <url value="MedicationDispense/smart-MedicationDispense-174"/>
    </request>
  </entry>
  <entry>
    <resource>
      <MedicationDispense>
        <meta>
          <tag>
            <system value="https://smarthealthit.org/tags"/>
            <code value="smart-8-2017"/>
          </tag>
        </meta>
        <id value="smart-MedicationDispense-175"/>
        <text>
          <status value="generated"/>
          <div xmlns="http://www.w3.org/1999/xhtml">
            Dispensed 30 tablets = 30 day supply of Lisinopril 20 MG Oral Tablet
          </div>
        </text>
        <status value="completed"/>
        <patient>
          <reference value="Patient/smart-731673"/>
        </patient>
        <authorizingPrescription>
          <reference value="MedicationOrder/smart-MedicationOrder-20"/>
        </authorizingPrescription>
        <quantity>
          <value value="30"/>
          <unit value="tablets"/>
          <system value="http://unitsofmeasure.org"/>
          <code value="{tablets}"/>
        </quantity>
        <daysSupply>
          <value value="30"/>
          <unit value="days"/>
          <system value="http://unitsofmeasure.org"/>
          <code value="d"/>
        </daysSupply>
        <medicationCodeableConcept>
          <coding>
            <system value="http://www.nlm.nih.gov/research/umls/rxnorm"/>
            <code value="314077"/>
            <display value="Lisinopril 20 MG Oral Tablet"/>
          </coding>
          <text value="Lisinopril 20 MG Oral Tablet"/>
        </medicationCodeableConcept>
        <whenHandedOver value="2009-02-15"/>
      </MedicationDispense>
    </resource>
    <request>
      <method value="PUT"/>
      <url value="MedicationDispense/smart-MedicationDispense-175"/>
    </request>
  </entry>
  <entry>
    <resource>
      <MedicationDispense>
        <meta>
          <tag>
            <system value="https://smarthealthit.org/tags"/>
            <code value="smart-8-2017"/>
          </tag>
        </meta>
        <id value="smart-MedicationDispense-179"/>
        <text>
          <status value="generated"/>
          <div xmlns="http://www.w3.org/1999/xhtml">
            Dispensed 30 tablets = 30 day supply of Lisinopril 20 MG Oral Tablet
          </div>
        </text>
        <status value="completed"/>
        <patient>
          <reference value="Patient/smart-731673"/>
        </patient>
        <authorizingPrescription>
          <reference value="MedicationOrder/smart-MedicationOrder-20"/>
        </authorizingPrescription>
        <quantity>
          <value value="30"/>
          <unit value="tablets"/>
          <system value="http://unitsofmeasure.org"/>
          <code value="{tablets}"/>
        </quantity>
        <daysSupply>
          <value value="30"/>
          <unit value="days"/>
          <system value="http://unitsofmeasure.org"/>
          <code value="d"/>
        </daysSupply>
        <medicationCodeableConcept>
          <coding>
            <system value="http://www.nlm.nih.gov/research/umls/rxnorm"/>
            <code value="314077"/>
            <display value="Lisinopril 20 MG Oral Tablet"/>
          </coding>
          <text value="Lisinopril 20 MG Oral Tablet"/>
        </medicationCodeableConcept>
        <whenHandedOver value="2010-01-23"/>
      </MedicationDispense>
    </resource>
    <request>
      <method value="PUT"/>
      <url value="MedicationDispense/smart-MedicationDispense-179"/>
    </request>
  </entry>
  <entry>
    <resource>
      <MedicationOrder>
        <meta>
          <tag>
            <system value="https://smarthealthit.org/tags"/>
            <code value="smart-8-2017"/>
          </tag>
        </meta>
        <id value="smart-MedicationOrder-21"/>
        <text>
          <status value="generated"/>
          <div xmlns="http://www.w3.org/1999/xhtml">
            duloxetine 60 MG Enteric Coated Capsule [Cymbalta] (rxnorm: 615186)
          </div>
        </text>
        <status value="active"/>
        <patient>
          <reference value="Patient/smart-731673"/>
        </patient>
        <medicationCodeableConcept>
          <coding>
            <system value="http://www.nlm.nih.gov/research/umls/rxnorm"/>
            <code value="615186"/>
            <display value="duloxetine 60 MG Enteric Coated Capsule [Cymbalta]"/>
          </coding>
          <text value="duloxetine 60 MG Enteric Coated Capsule [Cymbalta]"/>
        </medicationCodeableConcept>
        <dosageInstruction>
          <timing>
            <repeat>
              <boundsPeriod>
                <start value="2005-02-17"/>
              </boundsPeriod>
              <frequency value="1"/>
              <period value="1"/>
              <periodUnits value="d"/>
            </repeat>
          </timing>
          <doseQuantity>
            <value value="1"/>
            <unit value="{tablet}"/>
            <system value="http://unitsofmeasure.org"/>
            <code value="{tablet}"/>
          </doseQuantity>
          <text value="1 daily"/>
        </dosageInstruction>
        <dispenseRequest>
          <numberOfRepeatsAllowed value="1"/>
          <quantity>
            <value value="30"/>
            <unit value="{tablet}"/>
            <system value="http://unitsofmeasure.org"/>
            <code value="{tablet}"/>
          </quantity>
          <expectedSupplyDuration>
            <value value="30"/>
            <unit value="days"/>
            <system value="http://unitsofmeasure.org"/>
            <code value="d"/>
          </expectedSupplyDuration>
        </dispenseRequest>
      </MedicationOrder>
    </resource>
    <request>
      <method value="PUT"/>
      <url value="MedicationOrder/smart-MedicationOrder-21"/>
    </request>
  </entry>
  <entry>
    <resource>
      <MedicationDispense>
        <meta>
          <tag>
            <system value="https://smarthealthit.org/tags"/>
            <code value="smart-8-2017"/>
          </tag>
        </meta>
        <id value="smart-MedicationDispense-154"/>
        <text>
          <status value="generated"/>
          <div xmlns="http://www.w3.org/1999/xhtml">
            Dispensed 30 tablets = 30 day supply of duloxetine 60 MG Enteric Coated Capsule [Cymbalta]
          </div>
        </text>
        <status value="completed"/>
        <patient>
          <reference value="Patient/smart-731673"/>
        </patient>
        <authorizingPrescription>
          <reference value="MedicationOrder/smart-MedicationOrder-21"/>
        </authorizingPrescription>
        <quantity>
          <value value="30"/>
          <unit value="tablets"/>
          <system value="http://unitsofmeasure.org"/>
          <code value="{tablets}"/>
        </quantity>
        <daysSupply>
          <value value="30"/>
          <unit value="days"/>
          <system value="http://unitsofmeasure.org"/>
          <code value="d"/>
        </daysSupply>
        <medicationCodeableConcept>
          <coding>
            <system value="http://www.nlm.nih.gov/research/umls/rxnorm"/>
            <code value="615186"/>
            <display value="duloxetine 60 MG Enteric Coated Capsule [Cymbalta]"/>
          </coding>
          <text value="duloxetine 60 MG Enteric Coated Capsule [Cymbalta]"/>
        </medicationCodeableConcept>
        <whenHandedOver value="2008-10-11"/>
      </MedicationDispense>
    </resource>
    <request>
      <method value="PUT"/>
      <url value="MedicationDispense/smart-MedicationDispense-154"/>
    </request>
  </entry>
  <entry>
    <resource>
      <MedicationDispense>
        <meta>
          <tag>
            <system value="https://smarthealthit.org/tags"/>
            <code value="smart-8-2017"/>
          </tag>
        </meta>
        <id value="smart-MedicationDispense-156"/>
        <text>
          <status value="generated"/>
          <div xmlns="http://www.w3.org/1999/xhtml">
            Dispensed 30 tablets = 30 day supply of duloxetine 60 MG Enteric Coated Capsule [Cymbalta]
          </div>
        </text>
        <status value="completed"/>
        <patient>
          <reference value="Patient/smart-731673"/>
        </patient>
        <authorizingPrescription>
          <reference value="MedicationOrder/smart-MedicationOrder-21"/>
        </authorizingPrescription>
        <quantity>
          <value value="30"/>
          <unit value="tablets"/>
          <system value="http://unitsofmeasure.org"/>
          <code value="{tablets}"/>
        </quantity>
        <daysSupply>
          <value value="30"/>
          <unit value="days"/>
          <system value="http://unitsofmeasure.org"/>
          <code value="d"/>
        </daysSupply>
        <medicationCodeableConcept>
          <coding>
            <system value="http://www.nlm.nih.gov/research/umls/rxnorm"/>
            <code value="615186"/>
            <display value="duloxetine 60 MG Enteric Coated Capsule [Cymbalta]"/>
          </coding>
          <text value="duloxetine 60 MG Enteric Coated Capsule [Cymbalta]"/>
        </medicationCodeableConcept>
        <whenHandedOver value="2008-12-16"/>
      </MedicationDispense>
    </resource>
    <request>
      <method value="PUT"/>
      <url value="MedicationDispense/smart-MedicationDispense-156"/>
    </request>
  </entry>
  <entry>
    <resource>
      <MedicationDispense>
        <meta>
          <tag>
            <system value="https://smarthealthit.org/tags"/>
            <code value="smart-8-2017"/>
          </tag>
        </meta>
        <id value="smart-MedicationDispense-157"/>
        <text>
          <status value="generated"/>
          <div xmlns="http://www.w3.org/1999/xhtml">
            Dispensed 30 tablets = 30 day supply of duloxetine 60 MG Enteric Coated Capsule [Cymbalta]
          </div>
        </text>
        <status value="completed"/>
        <patient>
          <reference value="Patient/smart-731673"/>
        </patient>
        <authorizingPrescription>
          <reference value="MedicationOrder/smart-MedicationOrder-21"/>
        </authorizingPrescription>
        <quantity>
          <value value="30"/>
          <unit value="tablets"/>
          <system value="http://unitsofmeasure.org"/>
          <code value="{tablets}"/>
        </quantity>
        <daysSupply>
          <value value="30"/>
          <unit value="days"/>
          <system value="http://unitsofmeasure.org"/>
          <code value="d"/>
        </daysSupply>
        <medicationCodeableConcept>
          <coding>
            <system value="http://www.nlm.nih.gov/research/umls/rxnorm"/>
            <code value="615186"/>
            <display value="duloxetine 60 MG Enteric Coated Capsule [Cymbalta]"/>
          </coding>
          <text value="duloxetine 60 MG Enteric Coated Capsule [Cymbalta]"/>
        </medicationCodeableConcept>
        <whenHandedOver value="2009-03-10"/>
      </MedicationDispense>
    </resource>
    <request>
      <method value="PUT"/>
      <url value="MedicationDispense/smart-MedicationDispense-157"/>
    </request>
  </entry>
  <entry>
    <resource>
      <MedicationDispense>
        <meta>
          <tag>
            <system value="https://smarthealthit.org/tags"/>
            <code value="smart-8-2017"/>
          </tag>
        </meta>
        <id value="smart-MedicationDispense-158"/>
        <text>
          <status value="generated"/>
          <div xmlns="http://www.w3.org/1999/xhtml">
            Dispensed 30 tablets = 30 day supply of duloxetine 60 MG Enteric Coated Capsule [Cymbalta]
          </div>
        </text>
        <status value="completed"/>
        <patient>
          <reference value="Patient/smart-731673"/>
        </patient>
        <authorizingPrescription>
          <reference value="MedicationOrder/smart-MedicationOrder-21"/>
        </authorizingPrescription>
        <quantity>
          <value value="30"/>
          <unit value="tablets"/>
          <system value="http://unitsofmeasure.org"/>
          <code value="{tablets}"/>
        </quantity>
        <daysSupply>
          <value value="30"/>
          <unit value="days"/>
          <system value="http://unitsofmeasure.org"/>
          <code value="d"/>
        </daysSupply>
        <medicationCodeableConcept>
          <coding>
            <system value="http://www.nlm.nih.gov/research/umls/rxnorm"/>
            <code value="615186"/>
            <display value="duloxetine 60 MG Enteric Coated Capsule [Cymbalta]"/>
          </coding>
          <text value="duloxetine 60 MG Enteric Coated Capsule [Cymbalta]"/>
        </medicationCodeableConcept>
        <whenHandedOver value="2009-10-10"/>
      </MedicationDispense>
    </resource>
    <request>
      <method value="PUT"/>
      <url value="MedicationDispense/smart-MedicationDispense-158"/>
    </request>
  </entry>
  <entry>
    <resource>
      <MedicationDispense>
        <meta>
          <tag>
            <system value="https://smarthealthit.org/tags"/>
            <code value="smart-8-2017"/>
          </tag>
        </meta>
        <id value="smart-MedicationDispense-155"/>
        <text>
          <status value="generated"/>
          <div xmlns="http://www.w3.org/1999/xhtml">
            Dispensed 30 tablets = 30 day supply of duloxetine 60 MG Enteric Coated Capsule [Cymbalta]
          </div>
        </text>
        <status value="completed"/>
        <patient>
          <reference value="Patient/smart-731673"/>
        </patient>
        <authorizingPrescription>
          <reference value="MedicationOrder/smart-MedicationOrder-21"/>
        </authorizingPrescription>
        <quantity>
          <value value="30"/>
          <unit value="tablets"/>
          <system value="http://unitsofmeasure.org"/>
          <code value="{tablets}"/>
        </quantity>
        <daysSupply>
          <value value="30"/>
          <unit value="days"/>
          <system value="http://unitsofmeasure.org"/>
          <code value="d"/>
        </daysSupply>
        <medicationCodeableConcept>
          <coding>
            <system value="http://www.nlm.nih.gov/research/umls/rxnorm"/>
            <code value="615186"/>
            <display value="duloxetine 60 MG Enteric Coated Capsule [Cymbalta]"/>
          </coding>
          <text value="duloxetine 60 MG Enteric Coated Capsule [Cymbalta]"/>
        </medicationCodeableConcept>
        <whenHandedOver value="2008-12-14"/>
      </MedicationDispense>
    </resource>
    <request>
      <method value="PUT"/>
      <url value="MedicationDispense/smart-MedicationDispense-155"/>
    </request>
  </entry>
  <entry>
    <resource>
      <MedicationOrder>
        <meta>
          <tag>
            <system value="https://smarthealthit.org/tags"/>
            <code value="smart-8-2017"/>
          </tag>
        </meta>
        <id value="smart-MedicationOrder-22"/>
        <text>
          <status value="generated"/>
          <div xmlns="http://www.w3.org/1999/xhtml">
            Acetaminophen 650 MG / propoxyphene napsylate 100 MG Oral Tablet (rxnorm: 828576)
          </div>
        </text>
        <status value="active"/>
        <patient>
          <reference value="Patient/smart-731673"/>
        </patient>
        <medicationCodeableConcept>
          <coding>
            <system value="http://www.nlm.nih.gov/research/umls/rxnorm"/>
            <code value="828576"/>
            <display value="Acetaminophen 650 MG / propoxyphene napsylate 100 MG Oral Tablet"/>
          </coding>
          <text value="Acetaminophen 650 MG / propoxyphene napsylate 100 MG Oral Tablet"/>
        </medicationCodeableConcept>
        <dosageInstruction>
          <timing>
            <repeat>
              <boundsPeriod>
                <start value="2005-02-17"/>
              </boundsPeriod>
              <frequency value="4"/>
              <period value="1"/>
              <periodUnits value="d"/>
            </repeat>
          </timing>
          <doseQuantity>
            <value value="1"/>
            <unit value="{tablet}"/>
            <system value="http://unitsofmeasure.org"/>
            <code value="{tablet}"/>
          </doseQuantity>
          <asNeededBoolean value="true"/>
          <text value="1 q6h prn pain"/>
        </dosageInstruction>
        <dispenseRequest>
          <numberOfRepeatsAllowed value="1"/>
          <quantity>
            <value value="40"/>
            <unit value="{tablet}"/>
            <system value="http://unitsofmeasure.org"/>
            <code value="{tablet}"/>
          </quantity>
          <expectedSupplyDuration>
            <value value="10"/>
            <unit value="days"/>
            <system value="http://unitsofmeasure.org"/>
            <code value="d"/>
          </expectedSupplyDuration>
        </dispenseRequest>
      </MedicationOrder>
    </resource>
    <request>
      <method value="PUT"/>
      <url value="MedicationOrder/smart-MedicationOrder-22"/>
    </request>
  </entry>
  <entry>
    <resource>
      <MedicationDispense>
        <meta>
          <tag>
            <system value="https://smarthealthit.org/tags"/>
            <code value="smart-8-2017"/>
          </tag>
        </meta>
        <id value="smart-MedicationDispense-159"/>
        <text>
          <status value="generated"/>
          <div xmlns="http://www.w3.org/1999/xhtml">
            Dispensed 40 tablets = 10 day supply of Acetaminophen 650 MG / propoxyphene napsylate 100 MG Oral Tablet
          </div>
        </text>
        <status value="completed"/>
        <patient>
          <reference value="Patient/smart-731673"/>
        </patient>
        <authorizingPrescription>
          <reference value="MedicationOrder/smart-MedicationOrder-22"/>
        </authorizingPrescription>
        <quantity>
          <value value="40"/>
          <unit value="tablets"/>
          <system value="http://unitsofmeasure.org"/>
          <code value="{tablets}"/>
        </quantity>
        <daysSupply>
          <value value="10"/>
          <unit value="days"/>
          <system value="http://unitsofmeasure.org"/>
          <code value="d"/>
        </daysSupply>
        <medicationCodeableConcept>
          <coding>
            <system value="http://www.nlm.nih.gov/research/umls/rxnorm"/>
            <code value="828576"/>
            <display value="Acetaminophen 650 MG / propoxyphene napsylate 100 MG Oral Tablet"/>
          </coding>
          <text value="Acetaminophen 650 MG / propoxyphene napsylate 100 MG Oral Tablet"/>
        </medicationCodeableConcept>
        <whenHandedOver value="2008-10-11"/>
      </MedicationDispense>
    </resource>
    <request>
      <method value="PUT"/>
      <url value="MedicationDispense/smart-MedicationDispense-159"/>
    </request>
  </entry>
  <entry>
    <resource>
      <MedicationOrder>
        <meta>
          <tag>
            <system value="https://smarthealthit.org/tags"/>
            <code value="smart-8-2017"/>
          </tag>
        </meta>
        <id value="smart-MedicationOrder-23"/>
        <text>
          <status value="generated"/>
          <div xmlns="http://www.w3.org/1999/xhtml">
            Meclizine 25 MG Oral Tablet (rxnorm: 311470)
          </div>
        </text>
        <status value="active"/>
        <patient>
          <reference value="Patient/smart-731673"/>
        </patient>
        <medicationCodeableConcept>
          <coding>
            <system value="http://www.nlm.nih.gov/research/umls/rxnorm"/>
            <code value="311470"/>
            <display value="Meclizine 25 MG Oral Tablet"/>
          </coding>
          <text value="Meclizine 25 MG Oral Tablet"/>
        </medicationCodeableConcept>
        <dosageInstruction>
          <timing>
            <repeat>
              <boundsPeriod>
                <start value="2005-04-16"/>
              </boundsPeriod>
              <frequency value="2"/>
              <period value="1"/>
              <periodUnits value="d"/>
            </repeat>
          </timing>
          <doseQuantity>
            <value value="1"/>
            <unit value="{tablet}"/>
            <system value="http://unitsofmeasure.org"/>
            <code value="{tablet}"/>
          </doseQuantity>
          <asNeededBoolean value="true"/>
          <text value="1 bid prn dizziness"/>
        </dosageInstruction>
        <dispenseRequest>
          <numberOfRepeatsAllowed value="1"/>
          <quantity>
            <value value="14"/>
            <unit value="{tablet}"/>
            <system value="http://unitsofmeasure.org"/>
            <code value="{tablet}"/>
          </quantity>
          <expectedSupplyDuration>
            <value value="7"/>
            <unit value="days"/>
            <system value="http://unitsofmeasure.org"/>
            <code value="d"/>
          </expectedSupplyDuration>
        </dispenseRequest>
      </MedicationOrder>
    </resource>
    <request>
      <method value="PUT"/>
      <url value="MedicationOrder/smart-MedicationOrder-23"/>
    </request>
  </entry>
  <entry>
    <resource>
      <MedicationDispense>
        <meta>
          <tag>
            <system value="https://smarthealthit.org/tags"/>
            <code value="smart-8-2017"/>
          </tag>
        </meta>
        <id value="smart-MedicationDispense-183"/>
        <text>
          <status value="generated"/>
          <div xmlns="http://www.w3.org/1999/xhtml">
            Dispensed 14 tablets = 7 day supply of Meclizine 25 MG Oral Tablet
          </div>
        </text>
        <status value="completed"/>
        <patient>
          <reference value="Patient/smart-731673"/>
        </patient>
        <authorizingPrescription>
          <reference value="MedicationOrder/smart-MedicationOrder-23"/>
        </authorizingPrescription>
        <quantity>
          <value value="14"/>
          <unit value="tablets"/>
          <system value="http://unitsofmeasure.org"/>
          <code value="{tablets}"/>
        </quantity>
        <daysSupply>
          <value value="7"/>
          <unit value="days"/>
          <system value="http://unitsofmeasure.org"/>
          <code value="d"/>
        </daysSupply>
        <medicationCodeableConcept>
          <coding>
            <system value="http://www.nlm.nih.gov/research/umls/rxnorm"/>
            <code value="311470"/>
            <display value="Meclizine 25 MG Oral Tablet"/>
          </coding>
          <text value="Meclizine 25 MG Oral Tablet"/>
        </medicationCodeableConcept>
        <whenHandedOver value="2008-12-08"/>
      </MedicationDispense>
    </resource>
    <request>
      <method value="PUT"/>
      <url value="MedicationDispense/smart-MedicationDispense-183"/>
    </request>
  </entry>
  <entry>
    <resource>
      <MedicationDispense>
        <meta>
          <tag>
            <system value="https://smarthealthit.org/tags"/>
            <code value="smart-8-2017"/>
          </tag>
        </meta>
        <id value="smart-MedicationDispense-184"/>
        <text>
          <status value="generated"/>
          <div xmlns="http://www.w3.org/1999/xhtml">
            Dispensed 14 tablets = 7 day supply of Meclizine 25 MG Oral Tablet
          </div>
        </text>
        <status value="completed"/>
        <patient>
          <reference value="Patient/smart-731673"/>
        </patient>
        <authorizingPrescription>
          <reference value="MedicationOrder/smart-MedicationOrder-23"/>
        </authorizingPrescription>
        <quantity>
          <value value="14"/>
          <unit value="tablets"/>
          <system value="http://unitsofmeasure.org"/>
          <code value="{tablets}"/>
        </quantity>
        <daysSupply>
          <value value="7"/>
          <unit value="days"/>
          <system value="http://unitsofmeasure.org"/>
          <code value="d"/>
        </daysSupply>
        <medicationCodeableConcept>
          <coding>
            <system value="http://www.nlm.nih.gov/research/umls/rxnorm"/>
            <code value="311470"/>
            <display value="Meclizine 25 MG Oral Tablet"/>
          </coding>
          <text value="Meclizine 25 MG Oral Tablet"/>
        </medicationCodeableConcept>
        <whenHandedOver value="2009-06-21"/>
      </MedicationDispense>
    </resource>
    <request>
      <method value="PUT"/>
      <url value="MedicationDispense/smart-MedicationDispense-184"/>
    </request>
  </entry>
  <entry>
    <resource>
      <MedicationOrder>
        <meta>
          <tag>
            <system value="https://smarthealthit.org/tags"/>
            <code value="smart-8-2017"/>
          </tag>
        </meta>
        <id value="smart-MedicationOrder-24"/>
        <text>
          <status value="generated"/>
          <div xmlns="http://www.w3.org/1999/xhtml">
            Nitrofurantoin 100 MG Oral Capsule (rxnorm: 311992)
          </div>
        </text>
        <status value="active"/>
        <patient>
          <reference value="Patient/smart-731673"/>
        </patient>
        <medicationCodeableConcept>
          <coding>
            <system value="http://www.nlm.nih.gov/research/umls/rxnorm"/>
            <code value="311992"/>
            <display value="Nitrofurantoin 100 MG Oral Capsule"/>
          </coding>
          <text value="Nitrofurantoin 100 MG Oral Capsule"/>
        </medicationCodeableConcept>
        <dosageInstruction>
          <timing>
            <repeat>
              <boundsPeriod>
                <start value="2005-05-12"/>
              </boundsPeriod>
              <frequency value="2"/>
              <period value="1"/>
              <periodUnits value="d"/>
            </repeat>
          </timing>
          <doseQuantity>
            <value value="1"/>
            <unit value="{tablet}"/>
            <system value="http://unitsofmeasure.org"/>
            <code value="{tablet}"/>
          </doseQuantity>
          <text value="1 bid"/>
        </dosageInstruction>
        <dispenseRequest>
          <numberOfRepeatsAllowed value="1"/>
          <quantity>
            <value value="20"/>
            <unit value="{tablet}"/>
            <system value="http://unitsofmeasure.org"/>
            <code value="{tablet}"/>
          </quantity>
          <expectedSupplyDuration>
            <value value="10"/>
            <unit value="days"/>
            <system value="http://unitsofmeasure.org"/>
            <code value="d"/>
          </expectedSupplyDuration>
        </dispenseRequest>
      </MedicationOrder>
    </resource>
    <request>
      <method value="PUT"/>
      <url value="MedicationOrder/smart-MedicationOrder-24"/>
    </request>
  </entry>
  <entry>
    <resource>
      <MedicationDispense>
        <meta>
          <tag>
            <system value="https://smarthealthit.org/tags"/>
            <code value="smart-8-2017"/>
          </tag>
        </meta>
        <id value="smart-MedicationDispense-168"/>
        <text>
          <status value="generated"/>
          <div xmlns="http://www.w3.org/1999/xhtml">
            Dispensed 20 tablets = 10 day supply of Nitrofurantoin 100 MG Oral Capsule
          </div>
        </text>
        <status value="completed"/>
        <patient>
          <reference value="Patient/smart-731673"/>
        </patient>
        <authorizingPrescription>
          <reference value="MedicationOrder/smart-MedicationOrder-24"/>
        </authorizingPrescription>
        <quantity>
          <value value="20"/>
          <unit value="tablets"/>
          <system value="http://unitsofmeasure.org"/>
          <code value="{tablets}"/>
        </quantity>
        <daysSupply>
          <value value="10"/>
          <unit value="days"/>
          <system value="http://unitsofmeasure.org"/>
          <code value="d"/>
        </daysSupply>
        <medicationCodeableConcept>
          <coding>
            <system value="http://www.nlm.nih.gov/research/umls/rxnorm"/>
            <code value="311992"/>
            <display value="Nitrofurantoin 100 MG Oral Capsule"/>
          </coding>
          <text value="Nitrofurantoin 100 MG Oral Capsule"/>
        </medicationCodeableConcept>
        <whenHandedOver value="2009-01-03"/>
      </MedicationDispense>
    </resource>
    <request>
      <method value="PUT"/>
      <url value="MedicationDispense/smart-MedicationDispense-168"/>
    </request>
  </entry>
  <entry>
    <resource>
      <MedicationOrder>
        <meta>
          <tag>
            <system value="https://smarthealthit.org/tags"/>
            <code value="smart-8-2017"/>
          </tag>
        </meta>
        <id value="smart-MedicationOrder-25"/>
        <text>
          <status value="generated"/>
          <div xmlns="http://www.w3.org/1999/xhtml">
            120 ACTUAT Triamcinolone 0.055 MG/ACTUAT Nasal Inhaler [Nasacort] (rxnorm: 752370)
          </div>
        </text>
        <status value="active"/>
        <patient>
          <reference value="Patient/smart-731673"/>
        </patient>
        <medicationCodeableConcept>
          <coding>
            <system value="http://www.nlm.nih.gov/research/umls/rxnorm"/>
            <code value="752370"/>
            <display value="120 ACTUAT Triamcinolone 0.055 MG/ACTUAT Nasal Inhaler [Nasacort]"/>
          </coding>
          <text value="120 ACTUAT Triamcinolone 0.055 MG/ACTUAT Nasal Inhaler [Nasacort]"/>
        </medicationCodeableConcept>
        <dosageInstruction>
          <timing>
            <repeat>
              <boundsPeriod>
                <start value="2005-09-09"/>
              </boundsPeriod>
              <frequency value="4"/>
              <period value="1"/>
              <periodUnits value="d"/>
            </repeat>
          </timing>
          <doseQuantity>
            <value value="2"/>
            <unit value="{puff}"/>
            <system value="http://unitsofmeasure.org"/>
            <code value="{puff}"/>
          </doseQuantity>
          <text value="2 puffs bid"/>
        </dosageInstruction>
        <dispenseRequest>
          <numberOfRepeatsAllowed value="1"/>
          <quantity>
            <value value="1"/>
            <unit value="{puff}"/>
            <system value="http://unitsofmeasure.org"/>
            <code value="{puff}"/>
          </quantity>
          <expectedSupplyDuration>
            <value value="30"/>
            <unit value="days"/>
            <system value="http://unitsofmeasure.org"/>
            <code value="d"/>
          </expectedSupplyDuration>
        </dispenseRequest>
      </MedicationOrder>
    </resource>
    <request>
      <method value="PUT"/>
      <url value="MedicationOrder/smart-MedicationOrder-25"/>
    </request>
  </entry>
  <entry>
    <resource>
      <Condition>
        <meta>
          <tag>
            <system value="https://smarthealthit.org/tags"/>
            <code value="smart-8-2017"/>
          </tag>
        </meta>
        <id value="smart-Condition-104"/>
        <text>
          <status value="generated"/>
          <div xmlns="http://www.w3.org/1999/xhtml">
            Acute sinusitis
          </div>
        </text>
        <patient>
          <reference value="Patient/smart-731673"/>
        </patient>
        <code>
          <coding>
            <system value="http://snomed.info/sct"/>
            <code value="36971009"/>
            <display value="Acute sinusitis"/>
          </coding>
          <text value="Acute sinusitis"/>
        </code>
        <clinicalStatus value="active"/>
        <verificationStatus value="confirmed"/>
        <onsetDateTime value="2008-06-21"/>
      </Condition>
    </resource>
    <request>
      <method value="PUT"/>
      <url value="Condition/smart-Condition-104"/>
    </request>
  </entry>
  <entry>
    <resource>
      <Condition>
        <meta>
          <tag>
            <system value="https://smarthealthit.org/tags"/>
            <code value="smart-8-2017"/>
          </tag>
        </meta>
        <id value="smart-Condition-105"/>
        <text>
          <status value="generated"/>
          <div xmlns="http://www.w3.org/1999/xhtml">
            Allergic rhinitis
          </div>
        </text>
        <patient>
          <reference value="Patient/smart-731673"/>
        </patient>
        <code>
          <coding>
            <system value="http://snomed.info/sct"/>
            <code value="61582004"/>
            <display value="Allergic rhinitis"/>
          </coding>
          <text value="Allergic rhinitis"/>
        </code>
        <clinicalStatus value="active"/>
        <verificationStatus value="confirmed"/>
        <onsetDateTime value="2008-06-21"/>
      </Condition>
    </resource>
    <request>
      <method value="PUT"/>
      <url value="Condition/smart-Condition-105"/>
    </request>
  </entry>
  <entry>
    <resource>
      <Condition>
        <meta>
          <tag>
            <system value="https://smarthealthit.org/tags"/>
            <code value="smart-8-2017"/>
          </tag>
        </meta>
        <id value="smart-Condition-106"/>
        <text>
          <status value="generated"/>
          <div xmlns="http://www.w3.org/1999/xhtml">
            Dizziness and giddiness
          </div>
        </text>
        <patient>
          <reference value="Patient/smart-731673"/>
        </patient>
        <code>
          <coding>
            <system value="http://snomed.info/sct"/>
            <code value="404640003"/>
            <display value="Dizziness and giddiness"/>
          </coding>
          <text value="Dizziness and giddiness"/>
        </code>
        <clinicalStatus value="active"/>
        <verificationStatus value="confirmed"/>
        <onsetDateTime value="2008-06-21"/>
      </Condition>
    </resource>
    <request>
      <method value="PUT"/>
      <url value="Condition/smart-Condition-106"/>
    </request>
  </entry>
  <entry>
    <resource>
      <Condition>
        <meta>
          <tag>
            <system value="https://smarthealthit.org/tags"/>
            <code value="smart-8-2017"/>
          </tag>
        </meta>
        <id value="smart-Condition-107"/>
        <text>
          <status value="generated"/>
          <div xmlns="http://www.w3.org/1999/xhtml">
            Other diseases of nasal cavity and sinuses
          </div>
        </text>
        <patient>
          <reference value="Patient/smart-731673"/>
        </patient>
        <code>
          <coding>
            <system value="http://snomed.info/sct"/>
            <code value="68235000"/>
            <display value="Other diseases of nasal cavity and sinuses"/>
          </coding>
          <text value="Other diseases of nasal cavity and sinuses"/>
        </code>
        <clinicalStatus value="active"/>
        <verificationStatus value="confirmed"/>
        <onsetDateTime value="2008-06-22"/>
      </Condition>
    </resource>
    <request>
      <method value="PUT"/>
      <url value="Condition/smart-Condition-107"/>
    </request>
  </entry>
  <entry>
    <resource>
      <Condition>
        <meta>
          <tag>
            <system value="https://smarthealthit.org/tags"/>
            <code value="smart-8-2017"/>
          </tag>
        </meta>
        <id value="smart-Condition-108"/>
        <text>
          <status value="generated"/>
          <div xmlns="http://www.w3.org/1999/xhtml">
            Arthropathy
          </div>
        </text>
        <patient>
          <reference value="Patient/smart-731673"/>
        </patient>
        <code>
          <coding>
            <system value="http://snomed.info/sct"/>
            <code value="3723001"/>
            <display value="Arthropathy"/>
          </coding>
          <text value="Arthropathy"/>
        </code>
        <clinicalStatus value="active"/>
        <verificationStatus value="confirmed"/>
        <onsetDateTime value="2008-10-10"/>
      </Condition>
    </resource>
    <request>
      <method value="PUT"/>
      <url value="Condition/smart-Condition-108"/>
    </request>
  </entry>
  <entry>
    <resource>
      <Condition>
        <meta>
          <tag>
            <system value="https://smarthealthit.org/tags"/>
            <code value="smart-8-2017"/>
          </tag>
        </meta>
        <id value="smart-Condition-109"/>
        <text>
          <status value="generated"/>
          <div xmlns="http://www.w3.org/1999/xhtml">
            Myalgia and myositis, unspecified
          </div>
        </text>
        <patient>
          <reference value="Patient/smart-731673"/>
        </patient>
        <code>
          <coding>
            <system value="http://snomed.info/sct"/>
            <code value="68962001"/>
            <display value="Myalgia and myositis, unspecified"/>
          </coding>
          <text value="Myalgia and myositis, unspecified"/>
        </code>
        <clinicalStatus value="active"/>
        <verificationStatus value="confirmed"/>
        <onsetDateTime value="2008-10-10"/>
      </Condition>
    </resource>
    <request>
      <method value="PUT"/>
      <url value="Condition/smart-Condition-109"/>
    </request>
  </entry>
  <entry>
    <resource>
      <Condition>
        <meta>
          <tag>
            <system value="https://smarthealthit.org/tags"/>
            <code value="smart-8-2017"/>
          </tag>
        </meta>
        <id value="smart-Condition-110"/>
        <text>
          <status value="generated"/>
          <div xmlns="http://www.w3.org/1999/xhtml">
            Anxiety
          </div>
        </text>
        <patient>
          <reference value="Patient/smart-731673"/>
        </patient>
        <code>
          <coding>
            <system value="http://snomed.info/sct"/>
            <code value="48694002"/>
            <display value="Anxiety"/>
          </coding>
          <text value="Anxiety"/>
        </code>
        <clinicalStatus value="active"/>
        <verificationStatus value="confirmed"/>
        <onsetDateTime value="2008-11-18"/>
      </Condition>
    </resource>
    <request>
      <method value="PUT"/>
      <url value="Condition/smart-Condition-110"/>
    </request>
  </entry>
  <entry>
    <resource>
      <Condition>
        <meta>
          <tag>
            <system value="https://smarthealthit.org/tags"/>
            <code value="smart-8-2017"/>
          </tag>
        </meta>
        <id value="smart-Condition-111"/>
        <text>
          <status value="generated"/>
          <div xmlns="http://www.w3.org/1999/xhtml">
            Benign essential hypertension
          </div>
        </text>
        <patient>
          <reference value="Patient/smart-731673"/>
        </patient>
        <code>
          <coding>
            <system value="http://snomed.info/sct"/>
            <code value="1201005"/>
            <display value="Benign essential hypertension"/>
          </coding>
          <text value="Benign essential hypertension"/>
        </code>
        <clinicalStatus value="active"/>
        <verificationStatus value="confirmed"/>
        <onsetDateTime value="2008-11-18"/>
      </Condition>
    </resource>
    <request>
      <method value="PUT"/>
      <url value="Condition/smart-Condition-111"/>
    </request>
  </entry>
  <entry>
    <resource>
      <Condition>
        <meta>
          <tag>
            <system value="https://smarthealthit.org/tags"/>
            <code value="smart-8-2017"/>
          </tag>
        </meta>
        <id value="smart-Condition-112"/>
        <text>
          <status value="generated"/>
          <div xmlns="http://www.w3.org/1999/xhtml">
            Depressive disorder
          </div>
        </text>
        <patient>
          <reference value="Patient/smart-731673"/>
        </patient>
        <code>
          <coding>
            <system value="http://snomed.info/sct"/>
            <code value="35489007"/>
            <display value="Depressive disorder"/>
          </coding>
          <text value="Depressive disorder"/>
        </code>
        <clinicalStatus value="active"/>
        <verificationStatus value="confirmed"/>
        <onsetDateTime value="2009-01-03"/>
      </Condition>
    </resource>
    <request>
      <method value="PUT"/>
      <url value="Condition/smart-Condition-112"/>
    </request>
  </entry>
  <entry>
    <resource>
      <Condition>
        <meta>
          <tag>
            <system value="https://smarthealthit.org/tags"/>
            <code value="smart-8-2017"/>
          </tag>
        </meta>
        <id value="smart-Condition-113"/>
        <text>
          <status value="generated"/>
          <div xmlns="http://www.w3.org/1999/xhtml">
            Urinary tract infectious disease
          </div>
        </text>
        <patient>
          <reference value="Patient/smart-731673"/>
        </patient>
        <code>
          <coding>
            <system value="http://snomed.info/sct"/>
            <code value="68566005"/>
            <display value="Urinary tract infectious disease"/>
          </coding>
          <text value="Urinary tract infectious disease"/>
        </code>
        <clinicalStatus value="active"/>
        <verificationStatus value="confirmed"/>
        <onsetDateTime value="2009-01-03"/>
      </Condition>
    </resource>
    <request>
      <method value="PUT"/>
      <url value="Condition/smart-Condition-113"/>
    </request>
  </entry>
  <entry>
    <resource>
      <Condition>
        <meta>
          <tag>
            <system value="https://smarthealthit.org/tags"/>
            <code value="smart-8-2017"/>
          </tag>
        </meta>
        <id value="smart-Condition-114"/>
        <text>
          <status value="generated"/>
          <div xmlns="http://www.w3.org/1999/xhtml">
            Headache
          </div>
        </text>
        <patient>
          <reference value="Patient/smart-731673"/>
        </patient>
        <code>
          <coding>
            <system value="http://snomed.info/sct"/>
            <code value="25064002"/>
            <display value="Headache"/>
          </coding>
          <text value="Headache"/>
        </code>
        <clinicalStatus value="active"/>
        <verificationStatus value="confirmed"/>
        <onsetDateTime value="2009-02-09"/>
      </Condition>
    </resource>
    <request>
      <method value="PUT"/>
      <url value="Condition/smart-Condition-114"/>
    </request>
  </entry>
  <entry>
    <resource>
      <Condition>
        <meta>
          <tag>
            <system value="https://smarthealthit.org/tags"/>
            <code value="smart-8-2017"/>
          </tag>
        </meta>
        <id value="smart-Condition-115"/>
        <text>
          <status value="generated"/>
          <div xmlns="http://www.w3.org/1999/xhtml">
            Essential hypertension
          </div>
        </text>
        <patient>
          <reference value="Patient/smart-731673"/>
        </patient>
        <code>
          <coding>
            <system value="http://snomed.info/sct"/>
            <code value="38341003"/>
            <display value="Essential hypertension"/>
          </coding>
          <text value="Essential hypertension"/>
        </code>
        <clinicalStatus value="active"/>
        <verificationStatus value="confirmed"/>
        <onsetDateTime value="2009-02-10"/>
      </Condition>
    </resource>
    <request>
      <method value="PUT"/>
      <url value="Condition/smart-Condition-115"/>
    </request>
  </entry>
  <entry>
    <resource>
      <Condition>
        <meta>
          <tag>
            <system value="https://smarthealthit.org/tags"/>
            <code value="smart-8-2017"/>
          </tag>
        </meta>
        <id value="smart-Condition-116"/>
        <text>
          <status value="generated"/>
          <div xmlns="http://www.w3.org/1999/xhtml">
            Hyperlipidemia
          </div>
        </text>
        <patient>
          <reference value="Patient/smart-731673"/>
        </patient>
        <code>
          <coding>
            <system value="http://snomed.info/sct"/>
            <code value="55822004"/>
            <display value="Hyperlipidemia"/>
          </coding>
          <text value="Hyperlipidemia"/>
        </code>
        <clinicalStatus value="active"/>
        <verificationStatus value="confirmed"/>
        <onsetDateTime value="2009-02-10"/>
      </Condition>
    </resource>
    <request>
      <method value="PUT"/>
      <url value="Condition/smart-Condition-116"/>
    </request>
  </entry>
  <entry>
    <resource>
      <Condition>
        <meta>
          <tag>
            <system value="https://smarthealthit.org/tags"/>
            <code value="smart-8-2017"/>
          </tag>
        </meta>
        <id value="smart-Condition-117"/>
        <text>
          <status value="generated"/>
          <div xmlns="http://www.w3.org/1999/xhtml">
            Peripheral vertigo
          </div>
        </text>
        <patient>
          <reference value="Patient/smart-731673"/>
        </patient>
        <code>
          <coding>
            <system value="http://snomed.info/sct"/>
            <code value="50438001"/>
            <display value="Peripheral vertigo"/>
          </coding>
          <text value="Peripheral vertigo"/>
        </code>
        <clinicalStatus value="active"/>
        <verificationStatus value="confirmed"/>
        <onsetDateTime value="2009-02-28"/>
      </Condition>
    </resource>
    <request>
      <method value="PUT"/>
      <url value="Condition/smart-Condition-117"/>
    </request>
  </entry>
  <entry>
    <resource>
      <Condition>
        <meta>
          <tag>
            <system value="https://smarthealthit.org/tags"/>
            <code value="smart-8-2017"/>
          </tag>
        </meta>
        <id value="smart-Condition-118"/>
        <text>
          <status value="generated"/>
          <div xmlns="http://www.w3.org/1999/xhtml">
            Sensorineural hearing loss
          </div>
        </text>
        <patient>
          <reference value="Patient/smart-731673"/>
        </patient>
        <code>
          <coding>
            <system value="http://snomed.info/sct"/>
            <code value="60700002"/>
            <display value="Sensorineural hearing loss"/>
          </coding>
          <text value="Sensorineural hearing loss"/>
        </code>
        <clinicalStatus value="active"/>
        <verificationStatus value="confirmed"/>
        <onsetDateTime value="2009-02-28"/>
      </Condition>
    </resource>
    <request>
      <method value="PUT"/>
      <url value="Condition/smart-Condition-118"/>
    </request>
  </entry>
  <entry>
    <resource>
      <Observation>
        <id value="smart-Observation-13-smokingstatus"/>
        <text>
          <status value="generated"/>
          <div xmlns="http://www.w3.org/1999/xhtml">
            Tobacco smoking status: Never smoker
          </div>
        </text>
        <category>
          <coding>
            <system value="http://hl7.org/fhir/observation-category"/>
            <code value="social-history"/>
            <display value="Social History"/>
          </coding>
          <text value="Social History"/>
        </category>
        <code>
          <coding>
            <system value="http://loinc.org"/>
            <code value="72166-2"/>
            <display value="Tobacco smoking status"/>
          </coding>
          <text value="Tobacco smoking status"/>
        </code>
        <valueCodeableConcept>
          <coding>
            <system value="http://snomed.info/sct"/>
            <code value="266919005"/>
            <display value="Never smoker"/>
          </coding>
          <text value="Never smoker"/>
        </valueCodeableConcept>
        <status value="final"/>
        <subject>
          <reference value="Patient/smart-731673"/>
        </subject>
      </Observation>
    </resource>
    <request>
      <method value="PUT"/>
      <url value="Observation/smart-Observation-13-smokingstatus"/>
    </request>
  </entry>
  <entry>
    <resource>
      <Observation>
        <meta>
          <tag>
            <system value="https://smarthealthit.org/tags"/>
            <code value="smart-8-2017"/>
          </tag>
        </meta>
        <id value="smart-Observation-731673-gestage"/>
        <text>
          <status value="generated"/>
          <div xmlns="http://www.w3.org/1999/xhtml">
            1953-05-16: Gestational age at birth = 39.2 weeks
          </div>
        </text>
        <category>
          <coding>
            <system value="http://hl7.org/fhir/observation-category"/>
            <code value="exam"/>
            <display value="Exam"/>
          </coding>
          <text value="Exam"/>
        </category>
        <code>
          <coding>
            <system value="http://loinc.org"/>
            <code value="18185-9"/>
            <display value="Gestational age at birth"/>
          </coding>
          <text value="Gestational age at birth"/>
        </code>
        <valueQuantity>
          <value value="39.2"/>
          <unit value="weeks"/>
          <system value="http://unitsofmeasure.org"/>
          <code value="wk"/>
        </valueQuantity>
        <effectiveDateTime value="1953-05-16"/>
        <status value="final"/>
        <subject>
          <reference value="Patient/smart-731673"/>
        </subject>
      </Observation>
    </resource>
    <request>
      <method value="PUT"/>
      <url value="Observation/smart-Observation-731673-gestage"/>
    </request>
  </entry>
  <entry>
    <resource>
      <List>
        <meta>
          <tag>
            <system value="https://smarthealthit.org/tags"/>
            <code value="smart-8-2017"/>
          </tag>
        </meta>
        <id value="smart-List-9"/>
        <text>
          <status value="generated"/>
          <div xmlns="http://www.w3.org/1999/xhtml">
            No known allergies
          </div>
        </text>
        <code>
          <coding>
            <system value="http://loinc.org/"/>
            <code value="52473-6"/>
            <display value="Allergy"/>
          </coding>
          <text value="Allergy"/>
        </code>
        <subject>
          <reference value="Patient/smart-731673"/>
        </subject>
        <date value="2000"/>
        <mode value="snapshot"/>
        <emptyReason>
          <coding>
            <system value="http://hl7.org/fhir/list-empty-reason"/>
            <code value="nilknown"/>
            <display value="Nil Known"/>
          </coding>
          <text value="Nil Known"/>
        </emptyReason>
      </List>
    </resource>
    <request>
      <method value="PUT"/>
      <url value="List/smart-List-9"/>
    </request>
  </entry>
</Bundle>