<?xml version="1.0" encoding="UTF-8"?>
<Bundle xmlns="http://hl7.org/fhir">
  <type value="transaction"/>
  <entry>
    <resource>
      <Patient>
        <meta>
          <tag>
            <system value="https://smarthealthit.org/tags"/>
            <code value="smart-8-2017"/>
          </tag>
        </meta>
        <id value="smart-7777702"/>
        <text>
          <status value="generated"/>
          <div xmlns="http://www.w3.org/1999/xhtml">
            <p>
              Yolanda Warren
            </p>
          </div>
        </text>
        <identifier>
          <use value="usual"/>
          <type>
            <coding>
              <system value="http://hl7.org/fhir/v2/0203"/>
              <code value="MR"/>
              <display value="Medical record number"/>
            </coding>
            <text value="Medical record number"/>
          </type>
          <system value="http://hospital.smarthealthit.org"/>
          <value value="7777702"/>
        </identifier>
        <name>
          <use value="official"/>
          <family value="Warren"/>
          <given value="Yolanda"/>
        </name>
        <gender value="female"/>
        <birthDate value="2012-05-25"/>
        <active value="true"/>
      </Patient>
    </resource>
    <request>
      <method value="PUT"/>
      <url value="Patient/smart-7777702"/>
    </request>
  </entry>
  <entry>
    <resource>
      <Encounter>
        <meta>
          <tag>
            <system value="https://smarthealthit.org/tags"/>
            <code value="smart-8-2017"/>
          </tag>
        </meta>
        <id value="smart-Encounter-984"/>
        <text>
          <status value="generated"/>
          <div xmlns="http://www.w3.org/1999/xhtml">
            2014-05-28: ambulatory encounter
          </div>
        </text>
        <status value="finished"/>
        <class value="ambulatory"/>
        <patient>
          <reference value="Patient/smart-7777702"/>
        </patient>
        <period>
          <start value="2014-05-28"/>
          <end value="2014-05-28"/>
        </period>
      </Encounter>
    </resource>
    <request>
      <method value="PUT"/>
      <url value="Encounter/smart-Encounter-984"/>
    </request>
  </entry>
  <entry>
    <resource>
      <Encounter>
        <meta>
          <tag>
            <system value="https://smarthealthit.org/tags"/>
            <code value="smart-8-2017"/>
          </tag>
        </meta>
        <id value="smart-Encounter-985"/>
        <text>
          <status value="generated"/>
          <div xmlns="http://www.w3.org/1999/xhtml">
            2014-07-04: ambulatory encounter
          </div>
        </text>
        <status value="finished"/>
        <class value="ambulatory"/>
        <patient>
          <reference value="Patient/smart-7777702"/>
        </patient>
        <period>
          <start value="2014-07-04"/>
          <end value="2014-07-04"/>
        </period>
      </Encounter>
    </resource>
    <request>
      <method value="PUT"/>
      <url value="Encounter/smart-Encounter-985"/>
    </request>
  </entry>
  <entry>
    <resource>
      <Encounter>
        <meta>
          <tag>
            <system value="https://smarthealthit.org/tags"/>
            <code value="smart-8-2017"/>
          </tag>
        </meta>
        <id value="smart-Encounter-986"/>
        <text>
          <status value="generated"/>
          <div xmlns="http://www.w3.org/1999/xhtml">
            2014-11-27: ambulatory encounter
          </div>
        </text>
        <status value="finished"/>
        <class value="ambulatory"/>
        <patient>
          <reference value="Patient/smart-7777702"/>
        </patient>
        <period>
          <start value="2014-11-27"/>
          <end value="2014-11-27"/>
        </period>
      </Encounter>
    </resource>
    <request>
      <method value="PUT"/>
      <url value="Encounter/smart-Encounter-986"/>
    </request>
  </entry>
  <entry>
    <resource>
      <Encounter>
        <meta>
          <tag>
            <system value="https://smarthealthit.org/tags"/>
            <code value="smart-8-2017"/>
          </tag>
        </meta>
        <id value="smart-Encounter-987"/>
        <text>
          <status value="generated"/>
          <div xmlns="http://www.w3.org/1999/xhtml">
            2015-01-02: ambulatory encounter
          </div>
        </text>
        <status value="finished"/>
        <class value="ambulatory"/>
        <patient>
          <reference value="Patient/smart-7777702"/>
        </patient>
        <period>
          <start value="2015-01-02"/>
          <end value="2015-01-02"/>
        </period>
      </Encounter>
    </resource>
    <request>
      <method value="PUT"/>
      <url value="Encounter/smart-Encounter-987"/>
    </request>
  </entry>
  <entry>
    <resource>
      <Encounter>
        <meta>
          <tag>
            <system value="https://smarthealthit.org/tags"/>
            <code value="smart-8-2017"/>
          </tag>
        </meta>
        <id value="smart-Encounter-988"/>
        <text>
          <status value="generated"/>
          <div xmlns="http://www.w3.org/1999/xhtml">
            2015-02-08: ambulatory encounter
          </div>
        </text>
        <status value="finished"/>
        <class value="ambulatory"/>
        <patient>
          <reference value="Patient/smart-7777702"/>
        </patient>
        <period>
          <start value="2015-02-08"/>
          <end value="2015-02-08"/>
        </period>
      </Encounter>
    </resource>
    <request>
      <method value="PUT"/>
      <url value="Encounter/smart-Encounter-988"/>
    </request>
  </entry>
  <entry>
    <resource>
      <Encounter>
        <meta>
          <tag>
            <system value="https://smarthealthit.org/tags"/>
            <code value="smart-8-2017"/>
          </tag>
        </meta>
        <id value="smart-Encounter-989"/>
        <text>
          <status value="generated"/>
          <div xmlns="http://www.w3.org/1999/xhtml">
            2015-03-16: ambulatory encounter
          </div>
        </text>
        <status value="finished"/>
        <class value="ambulatory"/>
        <patient>
          <reference value="Patient/smart-7777702"/>
        </patient>
        <period>
          <start value="2015-03-16"/>
          <end value="2015-03-16"/>
        </period>
      </Encounter>
    </resource>
    <request>
      <method value="PUT"/>
      <url value="Encounter/smart-Encounter-989"/>
    </request>
  </entry>
  <entry>
    <resource>
      <Encounter>
        <meta>
          <tag>
            <system value="https://smarthealthit.org/tags"/>
            <code value="smart-8-2017"/>
          </tag>
        </meta>
        <id value="smart-Encounter-990"/>
        <text>
          <status value="generated"/>
          <div xmlns="http://www.w3.org/1999/xhtml">
            2015-04-22: ambulatory encounter
          </div>
        </text>
        <status value="finished"/>
        <class value="ambulatory"/>
        <patient>
          <reference value="Patient/smart-7777702"/>
        </patient>
        <period>
          <start value="2015-04-22"/>
          <end value="2015-04-22"/>
        </period>
      </Encounter>
    </resource>
    <request>
      <method value="PUT"/>
      <url value="Encounter/smart-Encounter-990"/>
    </request>
  </entry>
  <entry>
    <resource>
      <Encounter>
        <meta>
          <tag>
            <system value="https://smarthealthit.org/tags"/>
            <code value="smart-8-2017"/>
          </tag>
        </meta>
        <id value="smart-Encounter-991"/>
        <text>
          <status value="generated"/>
          <div xmlns="http://www.w3.org/1999/xhtml">
            2015-05-28: ambulatory encounter
          </div>
        </text>
        <status value="finished"/>
        <class value="ambulatory"/>
        <patient>
          <reference value="Patient/smart-7777702"/>
        </patient>
        <period>
          <start value="2015-05-28"/>
          <end value="2015-05-28"/>
        </period>
      </Encounter>
    </resource>
    <request>
      <method value="PUT"/>
      <url value="Encounter/smart-Encounter-991"/>
    </request>
  </entry>
  <entry>
    <resource>
      <Encounter>
        <meta>
          <tag>
            <system value="https://smarthealthit.org/tags"/>
            <code value="smart-8-2017"/>
          </tag>
        </meta>
        <id value="smart-Encounter-992"/>
        <text>
          <status value="generated"/>
          <div xmlns="http://www.w3.org/1999/xhtml">
            2015-07-04: ambulatory encounter
          </div>
        </text>
        <status value="finished"/>
        <class value="ambulatory"/>
        <patient>
          <reference value="Patient/smart-7777702"/>
        </patient>
        <period>
          <start value="2015-07-04"/>
          <end value="2015-07-04"/>
        </period>
      </Encounter>
    </resource>
    <request>
      <method value="PUT"/>
      <url value="Encounter/smart-Encounter-992"/>
    </request>
  </entry>
  <entry>
    <resource>
      <Encounter>
        <meta>
          <tag>
            <system value="https://smarthealthit.org/tags"/>
            <code value="smart-8-2017"/>
          </tag>
        </meta>
        <id value="smart-Encounter-993"/>
        <text>
          <status value="generated"/>
          <div xmlns="http://www.w3.org/1999/xhtml">
            2015-08-09: ambulatory encounter
          </div>
        </text>
        <status value="finished"/>
        <class value="ambulatory"/>
        <patient>
          <reference value="Patient/smart-7777702"/>
        </patient>
        <period>
          <start value="2015-08-09"/>
          <end value="2015-08-09"/>
        </period>
      </Encounter>
    </resource>
    <request>
      <method value="PUT"/>
      <url value="Encounter/smart-Encounter-993"/>
    </request>
  </entry>
  <entry>
    <resource>
      <Encounter>
        <meta>
          <tag>
            <system value="https://smarthealthit.org/tags"/>
            <code value="smart-8-2017"/>
          </tag>
        </meta>
        <id value="smart-Encounter-994"/>
        <text>
          <status value="generated"/>
          <div xmlns="http://www.w3.org/1999/xhtml">
            2016-01-02: ambulatory encounter
          </div>
        </text>
        <status value="finished"/>
        <class value="ambulatory"/>
        <patient>
          <reference value="Patient/smart-7777702"/>
        </patient>
        <period>
          <start value="2016-01-02"/>
          <end value="2016-01-02"/>
        </period>
      </Encounter>
    </resource>
    <request>
      <method value="PUT"/>
      <url value="Encounter/smart-Encounter-994"/>
    </request>
  </entry>
  <entry>
    <resource>
      <Encounter>
        <meta>
          <tag>
            <system value="https://smarthealthit.org/tags"/>
            <code value="smart-8-2017"/>
          </tag>
        </meta>
        <id value="smart-Encounter-995"/>
        <text>
          <status value="generated"/>
          <div xmlns="http://www.w3.org/1999/xhtml">
            2016-05-27: ambulatory encounter
          </div>
        </text>
        <status value="finished"/>
        <class value="ambulatory"/>
        <patient>
          <reference value="Patient/smart-7777702"/>
        </patient>
        <period>
          <start value="2016-05-27"/>
          <end value="2016-05-27"/>
        </period>
      </Encounter>
    </resource>
    <request>
      <method value="PUT"/>
      <url value="Encounter/smart-Encounter-995"/>
    </request>
  </entry>
  <entry>
    <resource>
      <Encounter>
        <meta>
          <tag>
            <system value="https://smarthealthit.org/tags"/>
            <code value="smart-8-2017"/>
          </tag>
        </meta>
        <id value="smart-Encounter-996"/>
        <text>
          <status value="generated"/>
          <div xmlns="http://www.w3.org/1999/xhtml">
            2016-10-20: ambulatory encounter
          </div>
        </text>
        <status value="finished"/>
        <class value="ambulatory"/>
        <patient>
          <reference value="Patient/smart-7777702"/>
        </patient>
        <period>
          <start value="2016-10-20"/>
          <end value="2016-10-20"/>
        </period>
      </Encounter>
    </resource>
    <request>
      <method value="PUT"/>
      <url value="Encounter/smart-Encounter-996"/>
    </request>
  </entry>
  <entry>
    <resource>
      <Observation>
        <meta>
          <tag>
            <system value="https://smarthealthit.org/tags"/>
            <code value="smart-8-2017"/>
          </tag>
        </meta>
        <id value="smart-Observation-984-height"/>
        <text>
          <status value="generated"/>
          <div xmlns="http://www.w3.org/1999/xhtml">
            2014-05-28: height = 78.5 cm
          </div>
        </text>
        <category>
          <coding>
            <system value="http://hl7.org/fhir/observation-category"/>
            <code value="vital-signs"/>
            <display value="Vital Signs"/>
          </coding>
          <text value="Vital Signs"/>
        </category>
        <code>
          <coding>
            <system value="http://loinc.org"/>
            <code value="8302-2"/>
            <display value="height"/>
          </coding>
          <text value="height"/>
        </code>
        <valueQuantity>
          <value value="78.5"/>
          <unit value="cm"/>
          <system value="http://unitsofmeasure.org"/>
          <code value="cm"/>
        </valueQuantity>
        <effectiveDateTime value="2014-05-28"/>
        <status value="final"/>
        <subject>
          <reference value="Patient/smart-7777702"/>
        </subject>
        <encounter>
          <reference value="Encounter/smart-Encounter-984"/>
        </encounter>
      </Observation>
    </resource>
    <request>
      <method value="PUT"/>
      <url value="Observation/smart-Observation-984-height"/>
    </request>
  </entry>
  <entry>
    <resource>
      <Observation>
        <meta>
          <tag>
            <system value="https://smarthealthit.org/tags"/>
            <code value="smart-8-2017"/>
          </tag>
        </meta>
        <id value="smart-Observation-984-weight"/>
        <text>
          <status value="generated"/>
          <div xmlns="http://www.w3.org/1999/xhtml">
            2014-05-28: weight = 9.8 kg
          </div>
        </text>
        <category>
          <coding>
            <system value="http://hl7.org/fhir/observation-category"/>
            <code value="vital-signs"/>
            <display value="Vital Signs"/>
          </coding>
          <text value="Vital Signs"/>
        </category>
        <code>
          <coding>
            <system value="http://loinc.org"/>
            <code value="3141-9"/>
            <display value="weight"/>
          </coding>
          <text value="weight"/>
        </code>
        <valueQuantity>
          <value value="9.8"/>
          <unit value="kg"/>
          <system value="http://unitsofmeasure.org"/>
          <code value="kg"/>
        </valueQuantity>
        <effectiveDateTime value="2014-05-28"/>
        <status value="final"/>
        <subject>
          <reference value="Patient/smart-7777702"/>
        </subject>
        <encounter>
          <reference value="Encounter/smart-Encounter-984"/>
        </encounter>
      </Observation>
    </resource>
    <request>
      <method value="PUT"/>
      <url value="Observation/smart-Observation-984-weight"/>
    </request>
  </entry>
  <entry>
    <resource>
      <Observation>
        <meta>
          <tag>
            <system value="https://smarthealthit.org/tags"/>
            <code value="smart-8-2017"/>
          </tag>
        </meta>
        <id value="smart-Observation-985-height"/>
        <text>
          <status value="generated"/>
          <div xmlns="http://www.w3.org/1999/xhtml">
            2014-07-04: height = 78.5 cm
          </div>
        </text>
        <category>
          <coding>
            <system value="http://hl7.org/fhir/observation-category"/>
            <code value="vital-signs"/>
            <display value="Vital Signs"/>
          </coding>
          <text value="Vital Signs"/>
        </category>
        <code>
          <coding>
            <system value="http://loinc.org"/>
            <code value="8302-2"/>
            <display value="height"/>
          </coding>
          <text value="height"/>
        </code>
        <valueQuantity>
          <value value="78.5"/>
          <unit value="cm"/>
          <system value="http://unitsofmeasure.org"/>
          <code value="cm"/>
        </valueQuantity>
        <effectiveDateTime value="2014-07-04"/>
        <status value="final"/>
        <subject>
          <reference value="Patient/smart-7777702"/>
        </subject>
        <encounter>
          <reference value="Encounter/smart-Encounter-985"/>
        </encounter>
      </Observation>
    </resource>
    <request>
      <method value="PUT"/>
      <url value="Observation/smart-Observation-985-height"/>
    </request>
  </entry>
  <entry>
    <resource>
      <Observation>
        <meta>
          <tag>
            <system value="https://smarthealthit.org/tags"/>
            <code value="smart-8-2017"/>
          </tag>
        </meta>
        <id value="smart-Observation-985-weight"/>
        <text>
          <status value="generated"/>
          <div xmlns="http://www.w3.org/1999/xhtml">
            2014-07-04: weight = 9.8 kg
          </div>
        </text>
        <category>
          <coding>
            <system value="http://hl7.org/fhir/observation-category"/>
            <code value="vital-signs"/>
            <display value="Vital Signs"/>
          </coding>
          <text value="Vital Signs"/>
        </category>
        <code>
          <coding>
            <system value="http://loinc.org"/>
            <code value="3141-9"/>
            <display value="weight"/>
          </coding>
          <text value="weight"/>
        </code>
        <valueQuantity>
          <value value="9.8"/>
          <unit value="kg"/>
          <system value="http://unitsofmeasure.org"/>
          <code value="kg"/>
        </valueQuantity>
        <effectiveDateTime value="2014-07-04"/>
        <status value="final"/>
        <subject>
          <reference value="Patient/smart-7777702"/>
        </subject>
        <encounter>
          <reference value="Encounter/smart-Encounter-985"/>
        </encounter>
      </Observation>
    </resource>
    <request>
      <method value="PUT"/>
      <url value="Observation/smart-Observation-985-weight"/>
    </request>
  </entry>
  <entry>
    <resource>
      <Observation>
        <meta>
          <tag>
            <system value="https://smarthealthit.org/tags"/>
            <code value="smart-8-2017"/>
          </tag>
        </meta>
        <id value="smart-Observation-986-height"/>
        <text>
          <status value="generated"/>
          <div xmlns="http://www.w3.org/1999/xhtml">
            2014-11-27: height = 82.3 cm
          </div>
        </text>
        <category>
          <coding>
            <system value="http://hl7.org/fhir/observation-category"/>
            <code value="vital-signs"/>
            <display value="Vital Signs"/>
          </coding>
          <text value="Vital Signs"/>
        </category>
        <code>
          <coding>
            <system value="http://loinc.org"/>
            <code value="8302-2"/>
            <display value="height"/>
          </coding>
          <text value="height"/>
        </code>
        <valueQuantity>
          <value value="82.3"/>
          <unit value="cm"/>
          <system value="http://unitsofmeasure.org"/>
          <code value="cm"/>
        </valueQuantity>
        <effectiveDateTime value="2014-11-27"/>
        <status value="final"/>
        <subject>
          <reference value="Patient/smart-7777702"/>
        </subject>
        <encounter>
          <reference value="Encounter/smart-Encounter-986"/>
        </encounter>
      </Observation>
    </resource>
    <request>
      <method value="PUT"/>
      <url value="Observation/smart-Observation-986-height"/>
    </request>
  </entry>
  <entry>
    <resource>
      <Observation>
        <meta>
          <tag>
            <system value="https://smarthealthit.org/tags"/>
            <code value="smart-8-2017"/>
          </tag>
        </meta>
        <id value="smart-Observation-986-weight"/>
        <text>
          <status value="generated"/>
          <div xmlns="http://www.w3.org/1999/xhtml">
            2014-11-27: weight = 10.9 kg
          </div>
        </text>
        <category>
          <coding>
            <system value="http://hl7.org/fhir/observation-category"/>
            <code value="vital-signs"/>
            <display value="Vital Signs"/>
          </coding>
          <text value="Vital Signs"/>
        </category>
        <code>
          <coding>
            <system value="http://loinc.org"/>
            <code value="3141-9"/>
            <display value="weight"/>
          </coding>
          <text value="weight"/>
        </code>
        <valueQuantity>
          <value value="10.9"/>
          <unit value="kg"/>
          <system value="http://unitsofmeasure.org"/>
          <code value="kg"/>
        </valueQuantity>
        <effectiveDateTime value="2014-11-27"/>
        <status value="final"/>
        <subject>
          <reference value="Patient/smart-7777702"/>
        </subject>
        <encounter>
          <reference value="Encounter/smart-Encounter-986"/>
        </encounter>
      </Observation>
    </resource>
    <request>
      <method value="PUT"/>
      <url value="Observation/smart-Observation-986-weight"/>
    </request>
  </entry>
  <entry>
    <resource>
      <Observation>
        <meta>
          <tag>
            <system value="https://smarthealthit.org/tags"/>
            <code value="smart-8-2017"/>
          </tag>
        </meta>
        <id value="smart-Observation-987-height"/>
        <text>
          <status value="generated"/>
          <div xmlns="http://www.w3.org/1999/xhtml">
            2015-01-02: height = 82.3 cm
          </div>
        </text>
        <category>
          <coding>
            <system value="http://hl7.org/fhir/observation-category"/>
            <code value="vital-signs"/>
            <display value="Vital Signs"/>
          </coding>
          <text value="Vital Signs"/>
        </category>
        <code>
          <coding>
            <system value="http://loinc.org"/>
            <code value="8302-2"/>
            <display value="height"/>
          </coding>
          <text value="height"/>
        </code>
        <valueQuantity>
          <value value="82.3"/>
          <unit value="cm"/>
          <system value="http://unitsofmeasure.org"/>
          <code value="cm"/>
        </valueQuantity>
        <effectiveDateTime value="2015-01-02"/>
        <status value="final"/>
        <subject>
          <reference value="Patient/smart-7777702"/>
        </subject>
        <encounter>
          <reference value="Encounter/smart-Encounter-987"/>
        </encounter>
      </Observation>
    </resource>
    <request>
      <method value="PUT"/>
      <url value="Observation/smart-Observation-987-height"/>
    </request>
  </entry>
  <entry>
    <resource>
      <Observation>
        <meta>
          <tag>
            <system value="https://smarthealthit.org/tags"/>
            <code value="smart-8-2017"/>
          </tag>
        </meta>
        <id value="smart-Observation-987-weight"/>
        <text>
          <status value="generated"/>
          <div xmlns="http://www.w3.org/1999/xhtml">
            2015-01-02: weight = 11.2 kg
          </div>
        </text>
        <category>
          <coding>
            <system value="http://hl7.org/fhir/observation-category"/>
            <code value="vital-signs"/>
            <display value="Vital Signs"/>
          </coding>
          <text value="Vital Signs"/>
        </category>
        <code>
          <coding>
            <system value="http://loinc.org"/>
            <code value="3141-9"/>
            <display value="weight"/>
          </coding>
          <text value="weight"/>
        </code>
        <valueQuantity>
          <value value="11.2"/>
          <unit value="kg"/>
          <system value="http://unitsofmeasure.org"/>
          <code value="kg"/>
        </valueQuantity>
        <effectiveDateTime value="2015-01-02"/>
        <status value="final"/>
        <subject>
          <reference value="Patient/smart-7777702"/>
        </subject>
        <encounter>
          <reference value="Encounter/smart-Encounter-987"/>
        </encounter>
      </Observation>
    </resource>
    <request>
      <method value="PUT"/>
      <url value="Observation/smart-Observation-987-weight"/>
    </request>
  </entry>
  <entry>
    <resource>
      <Observation>
        <meta>
          <tag>
            <system value="https://smarthealthit.org/tags"/>
            <code value="smart-8-2017"/>
          </tag>
        </meta>
        <id value="smart-Observation-988-height"/>
        <text>
          <status value="generated"/>
          <div xmlns="http://www.w3.org/1999/xhtml">
            2015-02-08: height = 84.0 cm
          </div>
        </text>
        <category>
          <coding>
            <system value="http://hl7.org/fhir/observation-category"/>
            <code value="vital-signs"/>
            <display value="Vital Signs"/>
          </coding>
          <text value="Vital Signs"/>
        </category>
        <code>
          <coding>
            <system value="http://loinc.org"/>
            <code value="8302-2"/>
            <display value="height"/>
          </coding>
          <text value="height"/>
        </code>
        <valueQuantity>
          <value value="84.0"/>
          <unit value="cm"/>
          <system value="http://unitsofmeasure.org"/>
          <code value="cm"/>
        </valueQuantity>
        <effectiveDateTime value="2015-02-08"/>
        <status value="final"/>
        <subject>
          <reference value="Patient/smart-7777702"/>
        </subject>
        <encounter>
          <reference value="Encounter/smart-Encounter-988"/>
        </encounter>
      </Observation>
    </resource>
    <request>
      <method value="PUT"/>
      <url value="Observation/smart-Observation-988-height"/>
    </request>
  </entry>
  <entry>
    <resource>
      <Observation>
        <meta>
          <tag>
            <system value="https://smarthealthit.org/tags"/>
            <code value="smart-8-2017"/>
          </tag>
        </meta>
        <id value="smart-Observation-988-weight"/>
        <text>
          <status value="generated"/>
          <div xmlns="http://www.w3.org/1999/xhtml">
            2015-02-08: weight = 11.2 kg
          </div>
        </text>
        <category>
          <coding>
            <system value="http://hl7.org/fhir/observation-category"/>
            <code value="vital-signs"/>
            <display value="Vital Signs"/>
          </coding>
          <text value="Vital Signs"/>
        </category>
        <code>
          <coding>
            <system value="http://loinc.org"/>
            <code value="3141-9"/>
            <display value="weight"/>
          </coding>
          <text value="weight"/>
        </code>
        <valueQuantity>
          <value value="11.2"/>
          <unit value="kg"/>
          <system value="http://unitsofmeasure.org"/>
          <code value="kg"/>
        </valueQuantity>
        <effectiveDateTime value="2015-02-08"/>
        <status value="final"/>
        <subject>
          <reference value="Patient/smart-7777702"/>
        </subject>
        <encounter>
          <reference value="Encounter/smart-Encounter-988"/>
        </encounter>
      </Observation>
    </resource>
    <request>
      <method value="PUT"/>
      <url value="Observation/smart-Observation-988-weight"/>
    </request>
  </entry>
  <entry>
    <resource>
      <Observation>
        <meta>
          <tag>
            <system value="https://smarthealthit.org/tags"/>
            <code value="smart-8-2017"/>
          </tag>
        </meta>
        <id value="smart-Observation-989-height"/>
        <text>
          <status value="generated"/>
          <div xmlns="http://www.w3.org/1999/xhtml">
            2015-03-16: height = 83.5 cm
          </div>
        </text>
        <category>
          <coding>
            <system value="http://hl7.org/fhir/observation-category"/>
            <code value="vital-signs"/>
            <display value="Vital Signs"/>
          </coding>
          <text value="Vital Signs"/>
        </category>
        <code>
          <coding>
            <system value="http://loinc.org"/>
            <code value="8302-2"/>
            <display value="height"/>
          </coding>
          <text value="height"/>
        </code>
        <valueQuantity>
          <value value="83.5"/>
          <unit value="cm"/>
          <system value="http://unitsofmeasure.org"/>
          <code value="cm"/>
        </valueQuantity>
        <effectiveDateTime value="2015-03-16"/>
        <status value="final"/>
        <subject>
          <reference value="Patient/smart-7777702"/>
        </subject>
        <encounter>
          <reference value="Encounter/smart-Encounter-989"/>
        </encounter>
      </Observation>
    </resource>
    <request>
      <method value="PUT"/>
      <url value="Observation/smart-Observation-989-height"/>
    </request>
  </entry>
  <entry>
    <resource>
      <Observation>
        <meta>
          <tag>
            <system value="https://smarthealthit.org/tags"/>
            <code value="smart-8-2017"/>
          </tag>
        </meta>
        <id value="smart-Observation-989-weight"/>
        <text>
          <status value="generated"/>
          <div xmlns="http://www.w3.org/1999/xhtml">
            2015-03-16: weight = 11.7 kg
          </div>
        </text>
        <category>
          <coding>
            <system value="http://hl7.org/fhir/observation-category"/>
            <code value="vital-signs"/>
            <display value="Vital Signs"/>
          </coding>
          <text value="Vital Signs"/>
        </category>
        <code>
          <coding>
            <system value="http://loinc.org"/>
            <code value="3141-9"/>
            <display value="weight"/>
          </coding>
          <text value="weight"/>
        </code>
        <valueQuantity>
          <value value="11.7"/>
          <unit value="kg"/>
          <system value="http://unitsofmeasure.org"/>
          <code value="kg"/>
        </valueQuantity>
        <effectiveDateTime value="2015-03-16"/>
        <status value="final"/>
        <subject>
          <reference value="Patient/smart-7777702"/>
        </subject>
        <encounter>
          <reference value="Encounter/smart-Encounter-989"/>
        </encounter>
      </Observation>
    </resource>
    <request>
      <method value="PUT"/>
      <url value="Observation/smart-Observation-989-weight"/>
    </request>
  </entry>
  <entry>
    <resource>
      <Observation>
        <meta>
          <tag>
            <system value="https://smarthealthit.org/tags"/>
            <code value="smart-8-2017"/>
          </tag>
        </meta>
        <id value="smart-Observation-990-height"/>
        <text>
          <status value="generated"/>
          <div xmlns="http://www.w3.org/1999/xhtml">
            2015-04-22: height = 85.5 cm
          </div>
        </text>
        <category>
          <coding>
            <system value="http://hl7.org/fhir/observation-category"/>
            <code value="vital-signs"/>
            <display value="Vital Signs"/>
          </coding>
          <text value="Vital Signs"/>
        </category>
        <code>
          <coding>
            <system value="http://loinc.org"/>
            <code value="8302-2"/>
            <display value="height"/>
          </coding>
          <text value="height"/>
        </code>
        <valueQuantity>
          <value value="85.5"/>
          <unit value="cm"/>
          <system value="http://unitsofmeasure.org"/>
          <code value="cm"/>
        </valueQuantity>
        <effectiveDateTime value="2015-04-22"/>
        <status value="final"/>
        <subject>
          <reference value="Patient/smart-7777702"/>
        </subject>
        <encounter>
          <reference value="Encounter/smart-Encounter-990"/>
        </encounter>
      </Observation>
    </resource>
    <request>
      <method value="PUT"/>
      <url value="Observation/smart-Observation-990-height"/>
    </request>
  </entry>
  <entry>
    <resource>
      <Observation>
        <meta>
          <tag>
            <system value="https://smarthealthit.org/tags"/>
            <code value="smart-8-2017"/>
          </tag>
        </meta>
        <id value="smart-Observation-990-weight"/>
        <text>
          <status value="generated"/>
          <div xmlns="http://www.w3.org/1999/xhtml">
            2015-04-22: weight = 11.0 kg
          </div>
        </text>
        <category>
          <coding>
            <system value="http://hl7.org/fhir/observation-category"/>
            <code value="vital-signs"/>
            <display value="Vital Signs"/>
          </coding>
          <text value="Vital Signs"/>
        </category>
        <code>
          <coding>
            <system value="http://loinc.org"/>
            <code value="3141-9"/>
            <display value="weight"/>
          </coding>
          <text value="weight"/>
        </code>
        <valueQuantity>
          <value value="11.0"/>
          <unit value="kg"/>
          <system value="http://unitsofmeasure.org"/>
          <code value="kg"/>
        </valueQuantity>
        <effectiveDateTime value="2015-04-22"/>
        <status value="final"/>
        <subject>
          <reference value="Patient/smart-7777702"/>
        </subject>
        <encounter>
          <reference value="Encounter/smart-Encounter-990"/>
        </encounter>
      </Observation>
    </resource>
    <request>
      <method value="PUT"/>
      <url value="Observation/smart-Observation-990-weight"/>
    </request>
  </entry>
  <entry>
    <resource>
      <Observation>
        <meta>
          <tag>
            <system value="https://smarthealthit.org/tags"/>
            <code value="smart-8-2017"/>
          </tag>
        </meta>
        <id value="smart-Observation-991-height"/>
        <text>
          <status value="generated"/>
          <div xmlns="http://www.w3.org/1999/xhtml">
            2015-05-28: height = 86.3 cm
          </div>
        </text>
        <category>
          <coding>
            <system value="http://hl7.org/fhir/observation-category"/>
            <code value="vital-signs"/>
            <display value="Vital Signs"/>
          </coding>
          <text value="Vital Signs"/>
        </category>
        <code>
          <coding>
            <system value="http://loinc.org"/>
            <code value="8302-2"/>
            <display value="height"/>
          </coding>
          <text value="height"/>
        </code>
        <valueQuantity>
          <value value="86.3"/>
          <unit value="cm"/>
          <system value="http://unitsofmeasure.org"/>
          <code value="cm"/>
        </valueQuantity>
        <effectiveDateTime value="2015-05-28"/>
        <status value="final"/>
        <subject>
          <reference value="Patient/smart-7777702"/>
        </subject>
        <encounter>
          <reference value="Encounter/smart-Encounter-991"/>
        </encounter>
      </Observation>
    </resource>
    <request>
      <method value="PUT"/>
      <url value="Observation/smart-Observation-991-height"/>
    </request>
  </entry>
  <entry>
    <resource>
      <Observation>
        <meta>
          <tag>
            <system value="https://smarthealthit.org/tags"/>
            <code value="smart-8-2017"/>
          </tag>
        </meta>
        <id value="smart-Observation-991-weight"/>
        <text>
          <status value="generated"/>
          <div xmlns="http://www.w3.org/1999/xhtml">
            2015-05-28: weight = 11.3 kg
          </div>
        </text>
        <category>
          <coding>
            <system value="http://hl7.org/fhir/observation-category"/>
            <code value="vital-signs"/>
            <display value="Vital Signs"/>
          </coding>
          <text value="Vital Signs"/>
        </category>
        <code>
          <coding>
            <system value="http://loinc.org"/>
            <code value="3141-9"/>
            <display value="weight"/>
          </coding>
          <text value="weight"/>
        </code>
        <valueQuantity>
          <value value="11.3"/>
          <unit value="kg"/>
          <system value="http://unitsofmeasure.org"/>
          <code value="kg"/>
        </valueQuantity>
        <effectiveDateTime value="2015-05-28"/>
        <status value="final"/>
        <subject>
          <reference value="Patient/smart-7777702"/>
        </subject>
        <encounter>
          <reference value="Encounter/smart-Encounter-991"/>
        </encounter>
      </Observation>
    </resource>
    <request>
      <method value="PUT"/>
      <url value="Observation/smart-Observation-991-weight"/>
    </request>
  </entry>
  <entry>
    <resource>
      <Observation>
        <meta>
          <tag>
            <system value="https://smarthealthit.org/tags"/>
            <code value="smart-8-2017"/>
          </tag>
        </meta>
        <id value="smart-Observation-992-height"/>
        <text>
          <status value="generated"/>
          <div xmlns="http://www.w3.org/1999/xhtml">
            2015-07-04: height = 86.3 cm
          </div>
        </text>
        <category>
          <coding>
            <system value="http://hl7.org/fhir/observation-category"/>
            <code value="vital-signs"/>
            <display value="Vital Signs"/>
          </coding>
          <text value="Vital Signs"/>
        </category>
        <code>
          <coding>
            <system value="http://loinc.org"/>
            <code value="8302-2"/>
            <display value="height"/>
          </coding>
          <text value="height"/>
        </code>
        <valueQuantity>
          <value value="86.3"/>
          <unit value="cm"/>
          <system value="http://unitsofmeasure.org"/>
          <code value="cm"/>
        </valueQuantity>
        <effectiveDateTime value="2015-07-04"/>
        <status value="final"/>
        <subject>
          <reference value="Patient/smart-7777702"/>
        </subject>
        <encounter>
          <reference value="Encounter/smart-Encounter-992"/>
        </encounter>
      </Observation>
    </resource>
    <request>
      <method value="PUT"/>
      <url value="Observation/smart-Observation-992-height"/>
    </request>
  </entry>
  <entry>
    <resource>
      <Observation>
        <meta>
          <tag>
            <system value="https://smarthealthit.org/tags"/>
            <code value="smart-8-2017"/>
          </tag>
        </meta>
        <id value="smart-Observation-992-weight"/>
        <text>
          <status value="generated"/>
          <div xmlns="http://www.w3.org/1999/xhtml">
            2015-07-04: weight = 11.9 kg
          </div>
        </text>
        <category>
          <coding>
            <system value="http://hl7.org/fhir/observation-category"/>
            <code value="vital-signs"/>
            <display value="Vital Signs"/>
          </coding>
          <text value="Vital Signs"/>
        </category>
        <code>
          <coding>
            <system value="http://loinc.org"/>
            <code value="3141-9"/>
            <display value="weight"/>
          </coding>
          <text value="weight"/>
        </code>
        <valueQuantity>
          <value value="11.9"/>
          <unit value="kg"/>
          <system value="http://unitsofmeasure.org"/>
          <code value="kg"/>
        </valueQuantity>
        <effectiveDateTime value="2015-07-04"/>
        <status value="final"/>
        <subject>
          <reference value="Patient/smart-7777702"/>
        </subject>
        <encounter>
          <reference value="Encounter/smart-Encounter-992"/>
        </encounter>
      </Observation>
    </resource>
    <request>
      <method value="PUT"/>
      <url value="Observation/smart-Observation-992-weight"/>
    </request>
  </entry>
  <entry>
    <resource>
      <Observation>
        <meta>
          <tag>
            <system value="https://smarthealthit.org/tags"/>
            <code value="smart-8-2017"/>
          </tag>
        </meta>
        <id value="smart-Observation-993-height"/>
        <text>
          <status value="generated"/>
          <div xmlns="http://www.w3.org/1999/xhtml">
            2015-08-09: height = 86.7 cm
          </div>
        </text>
        <category>
          <coding>
            <system value="http://hl7.org/fhir/observation-category"/>
            <code value="vital-signs"/>
            <display value="Vital Signs"/>
          </coding>
          <text value="Vital Signs"/>
        </category>
        <code>
          <coding>
            <system value="http://loinc.org"/>
            <code value="8302-2"/>
            <display value="height"/>
          </coding>
          <text value="height"/>
        </code>
        <valueQuantity>
          <value value="86.7"/>
          <unit value="cm"/>
          <system value="http://unitsofmeasure.org"/>
          <code value="cm"/>
        </valueQuantity>
        <effectiveDateTime value="2015-08-09"/>
        <status value="final"/>
        <subject>
          <reference value="Patient/smart-7777702"/>
        </subject>
        <encounter>
          <reference value="Encounter/smart-Encounter-993"/>
        </encounter>
      </Observation>
    </resource>
    <request>
      <method value="PUT"/>
      <url value="Observation/smart-Observation-993-height"/>
    </request>
  </entry>
  <entry>
    <resource>
      <Observation>
        <meta>
          <tag>
            <system value="https://smarthealthit.org/tags"/>
            <code value="smart-8-2017"/>
          </tag>
        </meta>
        <id value="smart-Observation-993-weight"/>
        <text>
          <status value="generated"/>
          <div xmlns="http://www.w3.org/1999/xhtml">
            2015-08-09: weight = 12.0 kg
          </div>
        </text>
        <category>
          <coding>
            <system value="http://hl7.org/fhir/observation-category"/>
            <code value="vital-signs"/>
            <display value="Vital Signs"/>
          </coding>
          <text value="Vital Signs"/>
        </category>
        <code>
          <coding>
            <system value="http://loinc.org"/>
            <code value="3141-9"/>
            <display value="weight"/>
          </coding>
          <text value="weight"/>
        </code>
        <valueQuantity>
          <value value="12.0"/>
          <unit value="kg"/>
          <system value="http://unitsofmeasure.org"/>
          <code value="kg"/>
        </valueQuantity>
        <effectiveDateTime value="2015-08-09"/>
        <status value="final"/>
        <subject>
          <reference value="Patient/smart-7777702"/>
        </subject>
        <encounter>
          <reference value="Encounter/smart-Encounter-993"/>
        </encounter>
      </Observation>
    </resource>
    <request>
      <method value="PUT"/>
      <url value="Observation/smart-Observation-993-weight"/>
    </request>
  </entry>
  <entry>
    <resource>
      <Observation>
        <meta>
          <tag>
            <system value="https://smarthealthit.org/tags"/>
            <code value="smart-8-2017"/>
          </tag>
        </meta>
        <id value="smart-Observation-994-height"/>
        <text>
          <status value="generated"/>
          <div xmlns="http://www.w3.org/1999/xhtml">
            2016-01-02: height = 90.9 cm
          </div>
        </text>
        <category>
          <coding>
            <system value="http://hl7.org/fhir/observation-category"/>
            <code value="vital-signs"/>
            <display value="Vital Signs"/>
          </coding>
          <text value="Vital Signs"/>
        </category>
        <code>
          <coding>
            <system value="http://loinc.org"/>
            <code value="8302-2"/>
            <display value="height"/>
          </coding>
          <text value="height"/>
        </code>
        <valueQuantity>
          <value value="90.9"/>
          <unit value="cm"/>
          <system value="http://unitsofmeasure.org"/>
          <code value="cm"/>
        </valueQuantity>
        <effectiveDateTime value="2016-01-02"/>
        <status value="final"/>
        <subject>
          <reference value="Patient/smart-7777702"/>
        </subject>
        <encounter>
          <reference value="Encounter/smart-Encounter-994"/>
        </encounter>
      </Observation>
    </resource>
    <request>
      <method value="PUT"/>
      <url value="Observation/smart-Observation-994-height"/>
    </request>
  </entry>
  <entry>
    <resource>
      <Observation>
        <meta>
          <tag>
            <system value="https://smarthealthit.org/tags"/>
            <code value="smart-8-2017"/>
          </tag>
        </meta>
        <id value="smart-Observation-994-weight"/>
        <text>
          <status value="generated"/>
          <div xmlns="http://www.w3.org/1999/xhtml">
            2016-01-02: weight = 12.7 kg
          </div>
        </text>
        <category>
          <coding>
            <system value="http://hl7.org/fhir/observation-category"/>
            <code value="vital-signs"/>
            <display value="Vital Signs"/>
          </coding>
          <text value="Vital Signs"/>
        </category>
        <code>
          <coding>
            <system value="http://loinc.org"/>
            <code value="3141-9"/>
            <display value="weight"/>
          </coding>
          <text value="weight"/>
        </code>
        <valueQuantity>
          <value value="12.7"/>
          <unit value="kg"/>
          <system value="http://unitsofmeasure.org"/>
          <code value="kg"/>
        </valueQuantity>
        <effectiveDateTime value="2016-01-02"/>
        <status value="final"/>
        <subject>
          <reference value="Patient/smart-7777702"/>
        </subject>
        <encounter>
          <reference value="Encounter/smart-Encounter-994"/>
        </encounter>
      </Observation>
    </resource>
    <request>
      <method value="PUT"/>
      <url value="Observation/smart-Observation-994-weight"/>
    </request>
  </entry>
  <entry>
    <resource>
      <Observation>
        <meta>
          <tag>
            <system value="https://smarthealthit.org/tags"/>
            <code value="smart-8-2017"/>
          </tag>
        </meta>
        <id value="smart-Observation-995-height"/>
        <text>
          <status value="generated"/>
          <div xmlns="http://www.w3.org/1999/xhtml">
            2016-05-27: height = 95.4 cm
          </div>
        </text>
        <category>
          <coding>
            <system value="http://hl7.org/fhir/observation-category"/>
            <code value="vital-signs"/>
            <display value="Vital Signs"/>
          </coding>
          <text value="Vital Signs"/>
        </category>
        <code>
          <coding>
            <system value="http://loinc.org"/>
            <code value="8302-2"/>
            <display value="height"/>
          </coding>
          <text value="height"/>
        </code>
        <valueQuantity>
          <value value="95.4"/>
          <unit value="cm"/>
          <system value="http://unitsofmeasure.org"/>
          <code value="cm"/>
        </valueQuantity>
        <effectiveDateTime value="2016-05-27"/>
        <status value="final"/>
        <subject>
          <reference value="Patient/smart-7777702"/>
        </subject>
        <encounter>
          <reference value="Encounter/smart-Encounter-995"/>
        </encounter>
      </Observation>
    </resource>
    <request>
      <method value="PUT"/>
      <url value="Observation/smart-Observation-995-height"/>
    </request>
  </entry>
  <entry>
    <resource>
      <Observation>
        <meta>
          <tag>
            <system value="https://smarthealthit.org/tags"/>
            <code value="smart-8-2017"/>
          </tag>
        </meta>
        <id value="smart-Observation-995-weight"/>
        <text>
          <status value="generated"/>
          <div xmlns="http://www.w3.org/1999/xhtml">
            2016-05-27: weight = 13.2 kg
          </div>
        </text>
        <category>
          <coding>
            <system value="http://hl7.org/fhir/observation-category"/>
            <code value="vital-signs"/>
            <display value="Vital Signs"/>
          </coding>
          <text value="Vital Signs"/>
        </category>
        <code>
          <coding>
            <system value="http://loinc.org"/>
            <code value="3141-9"/>
            <display value="weight"/>
          </coding>
          <text value="weight"/>
        </code>
        <valueQuantity>
          <value value="13.2"/>
          <unit value="kg"/>
          <system value="http://unitsofmeasure.org"/>
          <code value="kg"/>
        </valueQuantity>
        <effectiveDateTime value="2016-05-27"/>
        <status value="final"/>
        <subject>
          <reference value="Patient/smart-7777702"/>
        </subject>
        <encounter>
          <reference value="Encounter/smart-Encounter-995"/>
        </encounter>
      </Observation>
    </resource>
    <request>
      <method value="PUT"/>
      <url value="Observation/smart-Observation-995-weight"/>
    </request>
  </entry>
  <entry>
    <resource>
      <Observation>
        <meta>
          <tag>
            <system value="https://smarthealthit.org/tags"/>
            <code value="smart-8-2017"/>
          </tag>
        </meta>
        <id value="smart-Observation-996-height"/>
        <text>
          <status value="generated"/>
          <div xmlns="http://www.w3.org/1999/xhtml">
            2016-10-20: height = 98.8 cm
          </div>
        </text>
        <category>
          <coding>
            <system value="http://hl7.org/fhir/observation-category"/>
            <code value="vital-signs"/>
            <display value="Vital Signs"/>
          </coding>
          <text value="Vital Signs"/>
        </category>
        <code>
          <coding>
            <system value="http://loinc.org"/>
            <code value="8302-2"/>
            <display value="height"/>
          </coding>
          <text value="height"/>
        </code>
        <valueQuantity>
          <value value="98.8"/>
          <unit value="cm"/>
          <system value="http://unitsofmeasure.org"/>
          <code value="cm"/>
        </valueQuantity>
        <effectiveDateTime value="2016-10-20"/>
        <status value="final"/>
        <subject>
          <reference value="Patient/smart-7777702"/>
        </subject>
        <encounter>
          <reference value="Encounter/smart-Encounter-996"/>
        </encounter>
      </Observation>
    </resource>
    <request>
      <method value="PUT"/>
      <url value="Observation/smart-Observation-996-height"/>
    </request>
  </entry>
  <entry>
    <resource>
      <Observation>
        <meta>
          <tag>
            <system value="https://smarthealthit.org/tags"/>
            <code value="smart-8-2017"/>
          </tag>
        </meta>
        <id value="smart-Observation-996-weight"/>
        <text>
          <status value="generated"/>
          <div xmlns="http://www.w3.org/1999/xhtml">
            2016-10-20: weight = 14.4 kg
          </div>
        </text>
        <category>
          <coding>
            <system value="http://hl7.org/fhir/observation-category"/>
            <code value="vital-signs"/>
            <display value="Vital Signs"/>
          </coding>
          <text value="Vital Signs"/>
        </category>
        <code>
          <coding>
            <system value="http://loinc.org"/>
            <code value="3141-9"/>
            <display value="weight"/>
          </coding>
          <text value="weight"/>
        </code>
        <valueQuantity>
          <value value="14.4"/>
          <unit value="kg"/>
          <system value="http://unitsofmeasure.org"/>
          <code value="kg"/>
        </valueQuantity>
        <effectiveDateTime value="2016-10-20"/>
        <status value="final"/>
        <subject>
          <reference value="Patient/smart-7777702"/>
        </subject>
        <encounter>
          <reference value="Encounter/smart-Encounter-996"/>
        </encounter>
      </Observation>
    </resource>
    <request>
      <method value="PUT"/>
      <url value="Observation/smart-Observation-996-weight"/>
    </request>
  </entry>
  <entry>
    <resource>
      <FamilyMemberHistory>
        <meta>
          <tag>
            <system value="https://smarthealthit.org/tags"/>
            <code value="smart-8-2017"/>
          </tag>
        </meta>
        <id value="smart-FamilyMemberHistory-9"/>
        <extension url="http://fhir-registry.smarthealthit.org/StructureDefinition/family-history#height">
          <valueQuantity>
            <value value="177"/>
            <unit value="centimeters"/>
            <system value="http://unitsofmeasure.org"/>
            <code value="cm"/>
          </valueQuantity>
        </extension>
        <text>
          <status value="generated"/>
          <div xmlns="http://www.w3.org/1999/xhtml">
            Data on patient's Father
          </div>
        </text>
        <patient>
          <reference value="Patient/smart-7777702"/>
        </patient>
        <relationship>
          <coding>
            <system value="http://hl7.org/fhir/v3/RoleCode"/>
            <code value="FTH"/>
            <display value="father"/>
          </coding>
        </relationship>
      </FamilyMemberHistory>
    </resource>
    <request>
      <method value="PUT"/>
      <url value="FamilyMemberHistory/smart-FamilyMemberHistory-9"/>
    </request>
  </entry>
  <entry>
    <resource>
      <FamilyMemberHistory>
        <meta>
          <tag>
            <system value="https://smarthealthit.org/tags"/>
            <code value="smart-8-2017"/>
          </tag>
        </meta>
        <id value="smart-FamilyMemberHistory-10"/>
        <extension url="http://fhir-registry.smarthealthit.org/StructureDefinition/family-history#height">
          <valueQuantity>
            <value value="164.5"/>
            <unit value="centimeters"/>
            <system value="http://unitsofmeasure.org"/>
            <code value="cm"/>
          </valueQuantity>
        </extension>
        <text>
          <status value="generated"/>
          <div xmlns="http://www.w3.org/1999/xhtml">
            Data on patient's Mother
          </div>
        </text>
        <patient>
          <reference value="Patient/smart-7777702"/>
        </patient>
        <relationship>
          <coding>
            <system value="http://hl7.org/fhir/v3/RoleCode"/>
            <code value="MTH"/>
            <display value="mother"/>
          </coding>
        </relationship>
      </FamilyMemberHistory>
    </resource>
    <request>
      <method value="PUT"/>
      <url value="FamilyMemberHistory/smart-FamilyMemberHistory-10"/>
    </request>
  </entry>
</Bundle>