<?xml version="1.0" encoding="UTF-8"?>
<Bundle xmlns="http://hl7.org/fhir">
  <type value="transaction"/>
  <entry>
    <resource>
      <Patient>
        <meta>
          <tag>
            <system value="https://smarthealthit.org/tags"/>
            <code value="smart-8-2017"/>
          </tag>
        </meta>
        <id value="smart-767980"/>
        <text>
          <status value="generated"/>
          <div xmlns="http://www.w3.org/1999/xhtml">
            <p>
              Thomas Moore
            </p>
          </div>
        </text>
        <identifier>
          <use value="usual"/>
          <type>
            <coding>
              <system value="http://hl7.org/fhir/v2/0203"/>
              <code value="MR"/>
              <display value="Medical record number"/>
            </coding>
            <text value="Medical record number"/>
          </type>
          <system value="http://hospital.smarthealthit.org"/>
          <value value="767980"/>
        </identifier>
        <name>
          <use value="official"/>
          <family value="Moore"/>
          <given value="Thomas"/>
          <given value="Q."/>
        </name>
        <telecom>
          <system value="phone"/>
          <value value="800-583-2533"/>
          <use value="mobile"/>
        </telecom>
        <telecom>
          <system value="email"/>
          <value value="thomas.moore@example.com"/>
        </telecom>
        <gender value="male"/>
        <birthDate value="1957-04-22"/>
        <address>
          <use value="home"/>
          <line value="33 Park AveApt 2"/>
          <city value="Broken Arrow"/>
          <state value="OK"/>
          <postalCode value="74014"/>
          <country value="USA"/>
        </address>
        <active value="true"/>
      </Patient>
    </resource>
    <request>
      <method value="PUT"/>
      <url value="Patient/smart-767980"/>
    </request>
  </entry>
  <entry>
    <resource>
      <Observation>
        <meta>
          <tag>
            <system value="https://smarthealthit.org/tags"/>
            <code value="smart-8-2017"/>
          </tag>
        </meta>
        <id value="smart-Observation-1749-lab"/>
        <text>
          <status value="generated"/>
          <div xmlns="http://www.w3.org/1999/xhtml">
            2008-04-05: CK MB SerPl-mCnc = 7 ng/mL
          </div>
        </text>
        <category>
          <coding>
            <system value="http://hl7.org/fhir/observation-category"/>
            <code value="laboratory"/>
            <display value="Laboratory"/>
          </coding>
          <text value="Laboratory"/>
        </category>
        <code>
          <coding>
            <system value="http://loinc.org"/>
            <code value="13969-1"/>
            <display value="CK MB SerPl-mCnc"/>
          </coding>
          <text value="CK MB SerPl-mCnc"/>
        </code>
        <valueQuantity>
          <value value="7.0"/>
          <unit value="ng/mL"/>
          <system value="http://unitsofmeasure.org"/>
          <code value=""/>
        </valueQuantity>
        <effectiveDateTime value="2008-04-05"/>
        <status value="final"/>
        <subject>
          <reference value="Patient/smart-767980"/>
        </subject>
        <referenceRange>
          <meaning>
            <coding>
              <system value="http://hl7.org/fhir/referencerange-meaning"/>
              <code value="normal"/>
              <display value="Normal Range"/>
            </coding>
            <text value="Normal Range"/>
          </meaning>
          <low>
            <value value="0.0"/>
            <unit value="ng/mL"/>
            <code value="ng/mL"/>
            <system value="http://unitsofmeasure.org"/>
          </low>
          <high>
            <value value="5.0"/>
            <unit value="ng/mL"/>
            <code value="ng/mL"/>
            <system value="http://unitsofmeasure.org"/>
          </high>
        </referenceRange>
      </Observation>
    </resource>
    <request>
      <method value="PUT"/>
      <url value="Observation/smart-Observation-1749-lab"/>
    </request>
  </entry>
  <entry>
    <resource>
      <Observation>
        <meta>
          <tag>
            <system value="https://smarthealthit.org/tags"/>
            <code value="smart-8-2017"/>
          </tag>
        </meta>
        <id value="smart-Observation-1750-lab"/>
        <text>
          <status value="generated"/>
          <div xmlns="http://www.w3.org/1999/xhtml">
            2008-04-05: Troponin I SerPl-mCnc = 0 ng/mL
          </div>
        </text>
        <category>
          <coding>
            <system value="http://hl7.org/fhir/observation-category"/>
            <code value="laboratory"/>
            <display value="Laboratory"/>
          </coding>
          <text value="Laboratory"/>
        </category>
        <code>
          <coding>
            <system value="http://loinc.org"/>
            <code value="10839-9"/>
            <display value="Troponin I SerPl-mCnc"/>
          </coding>
          <text value="Troponin I SerPl-mCnc"/>
        </code>
        <valueQuantity>
          <value value="0.0"/>
          <unit value="ng/mL"/>
          <system value="http://unitsofmeasure.org"/>
          <code value=""/>
        </valueQuantity>
        <effectiveDateTime value="2008-04-05"/>
        <status value="final"/>
        <subject>
          <reference value="Patient/smart-767980"/>
        </subject>
        <referenceRange>
          <meaning>
            <coding>
              <system value="http://hl7.org/fhir/referencerange-meaning"/>
              <code value="normal"/>
              <display value="Normal Range"/>
            </coding>
            <text value="Normal Range"/>
          </meaning>
          <low>
            <value value="0.0"/>
            <unit value="ng/mL"/>
            <code value="ng/mL"/>
            <system value="http://unitsofmeasure.org"/>
          </low>
          <high>
            <value value="1.5"/>
            <unit value="ng/mL"/>
            <code value="ng/mL"/>
            <system value="http://unitsofmeasure.org"/>
          </high>
        </referenceRange>
      </Observation>
    </resource>
    <request>
      <method value="PUT"/>
      <url value="Observation/smart-Observation-1750-lab"/>
    </request>
  </entry>
  <entry>
    <resource>
      <Observation>
        <meta>
          <tag>
            <system value="https://smarthealthit.org/tags"/>
            <code value="smart-8-2017"/>
          </tag>
        </meta>
        <id value="smart-Observation-1751-lab"/>
        <text>
          <status value="generated"/>
          <div xmlns="http://www.w3.org/1999/xhtml">
            2008-04-05: Glucose SerPl-mCnc = 142 mg/dL
          </div>
        </text>
        <category>
          <coding>
            <system value="http://hl7.org/fhir/observation-category"/>
            <code value="laboratory"/>
            <display value="Laboratory"/>
          </coding>
          <text value="Laboratory"/>
        </category>
        <code>
          <coding>
            <system value="http://loinc.org"/>
            <code value="2345-7"/>
            <display value="Glucose SerPl-mCnc"/>
          </coding>
          <text value="Glucose SerPl-mCnc"/>
        </code>
        <valueQuantity>
          <value value="142.0"/>
          <unit value="mg/dL"/>
          <system value="http://unitsofmeasure.org"/>
          <code value=""/>
        </valueQuantity>
        <effectiveDateTime value="2008-04-05"/>
        <status value="final"/>
        <subject>
          <reference value="Patient/smart-767980"/>
        </subject>
        <referenceRange>
          <meaning>
            <coding>
              <system value="http://hl7.org/fhir/referencerange-meaning"/>
              <code value="normal"/>
              <display value="Normal Range"/>
            </coding>
            <text value="Normal Range"/>
          </meaning>
          <low>
            <value value="65.0"/>
            <unit value="mg/dL"/>
            <code value="mg/dL"/>
            <system value="http://unitsofmeasure.org"/>
          </low>
          <high>
            <value value="99.0"/>
            <unit value="mg/dL"/>
            <code value="mg/dL"/>
            <system value="http://unitsofmeasure.org"/>
          </high>
        </referenceRange>
      </Observation>
    </resource>
    <request>
      <method value="PUT"/>
      <url value="Observation/smart-Observation-1751-lab"/>
    </request>
  </entry>
  <entry>
    <resource>
      <Observation>
        <meta>
          <tag>
            <system value="https://smarthealthit.org/tags"/>
            <code value="smart-8-2017"/>
          </tag>
        </meta>
        <id value="smart-Observation-1752-lab"/>
        <text>
          <status value="generated"/>
          <div xmlns="http://www.w3.org/1999/xhtml">
            2008-04-05: BUN SerPl-mCnc = 19 mg/dL
          </div>
        </text>
        <category>
          <coding>
            <system value="http://hl7.org/fhir/observation-category"/>
            <code value="laboratory"/>
            <display value="Laboratory"/>
          </coding>
          <text value="Laboratory"/>
        </category>
        <code>
          <coding>
            <system value="http://loinc.org"/>
            <code value="3094-0"/>
            <display value="BUN SerPl-mCnc"/>
          </coding>
          <text value="BUN SerPl-mCnc"/>
        </code>
        <valueQuantity>
          <value value="19.0"/>
          <unit value="mg/dL"/>
          <system value="http://unitsofmeasure.org"/>
          <code value=""/>
        </valueQuantity>
        <effectiveDateTime value="2008-04-05"/>
        <status value="final"/>
        <subject>
          <reference value="Patient/smart-767980"/>
        </subject>
        <referenceRange>
          <meaning>
            <coding>
              <system value="http://hl7.org/fhir/referencerange-meaning"/>
              <code value="normal"/>
              <display value="Normal Range"/>
            </coding>
            <text value="Normal Range"/>
          </meaning>
          <low>
            <value value="9.0"/>
            <unit value="mg/dL"/>
            <code value="mg/dL"/>
            <system value="http://unitsofmeasure.org"/>
          </low>
          <high>
            <value value="20.0"/>
            <unit value="mg/dL"/>
            <code value="mg/dL"/>
            <system value="http://unitsofmeasure.org"/>
          </high>
        </referenceRange>
      </Observation>
    </resource>
    <request>
      <method value="PUT"/>
      <url value="Observation/smart-Observation-1752-lab"/>
    </request>
  </entry>
  <entry>
    <resource>
      <Observation>
        <meta>
          <tag>
            <system value="https://smarthealthit.org/tags"/>
            <code value="smart-8-2017"/>
          </tag>
        </meta>
        <id value="smart-Observation-1753-lab"/>
        <text>
          <status value="generated"/>
          <div xmlns="http://www.w3.org/1999/xhtml">
            2008-04-05: CK SerPl-cCnc = 448 U/L
          </div>
        </text>
        <category>
          <coding>
            <system value="http://hl7.org/fhir/observation-category"/>
            <code value="laboratory"/>
            <display value="Laboratory"/>
          </coding>
          <text value="Laboratory"/>
        </category>
        <code>
          <coding>
            <system value="http://loinc.org"/>
            <code value="2157-6"/>
            <display value="CK SerPl-cCnc"/>
          </coding>
          <text value="CK SerPl-cCnc"/>
        </code>
        <valueQuantity>
          <value value="448.0"/>
          <unit value="U/L"/>
          <system value="http://unitsofmeasure.org"/>
          <code value=""/>
        </valueQuantity>
        <effectiveDateTime value="2008-04-05"/>
        <status value="final"/>
        <subject>
          <reference value="Patient/smart-767980"/>
        </subject>
        <referenceRange>
          <meaning>
            <coding>
              <system value="http://hl7.org/fhir/referencerange-meaning"/>
              <code value="normal"/>
              <display value="Normal Range"/>
            </coding>
            <text value="Normal Range"/>
          </meaning>
          <low>
            <value value="20.0"/>
            <unit value="U/L"/>
            <code value="U/L"/>
            <system value="http://unitsofmeasure.org"/>
          </low>
          <high>
            <value value="259.0"/>
            <unit value="U/L"/>
            <code value="U/L"/>
            <system value="http://unitsofmeasure.org"/>
          </high>
        </referenceRange>
      </Observation>
    </resource>
    <request>
      <method value="PUT"/>
      <url value="Observation/smart-Observation-1753-lab"/>
    </request>
  </entry>
  <entry>
    <resource>
      <Observation>
        <meta>
          <tag>
            <system value="https://smarthealthit.org/tags"/>
            <code value="smart-8-2017"/>
          </tag>
        </meta>
        <id value="smart-Observation-1754-lab"/>
        <text>
          <status value="generated"/>
          <div xmlns="http://www.w3.org/1999/xhtml">
            2008-04-05: PMV Bld = 8.6 fL
          </div>
        </text>
        <category>
          <coding>
            <system value="http://hl7.org/fhir/observation-category"/>
            <code value="laboratory"/>
            <display value="Laboratory"/>
          </coding>
          <text value="Laboratory"/>
        </category>
        <code>
          <coding>
            <system value="http://loinc.org"/>
            <code value="28542-9"/>
            <display value="PMV Bld"/>
          </coding>
          <text value="PMV Bld"/>
        </code>
        <valueQuantity>
          <value value="8.6"/>
          <unit value="fL"/>
          <system value="http://unitsofmeasure.org"/>
          <code value=""/>
        </valueQuantity>
        <effectiveDateTime value="2008-04-05"/>
        <status value="final"/>
        <subject>
          <reference value="Patient/smart-767980"/>
        </subject>
        <referenceRange>
          <meaning>
            <coding>
              <system value="http://hl7.org/fhir/referencerange-meaning"/>
              <code value="normal"/>
              <display value="Normal Range"/>
            </coding>
            <text value="Normal Range"/>
          </meaning>
          <low>
            <value value="6.0"/>
            <unit value="fL"/>
            <code value="fL"/>
            <system value="http://unitsofmeasure.org"/>
          </low>
          <high>
            <value value="9.5"/>
            <unit value="fL"/>
            <code value="fL"/>
            <system value="http://unitsofmeasure.org"/>
          </high>
        </referenceRange>
      </Observation>
    </resource>
    <request>
      <method value="PUT"/>
      <url value="Observation/smart-Observation-1754-lab"/>
    </request>
  </entry>
  <entry>
    <resource>
      <Observation>
        <meta>
          <tag>
            <system value="https://smarthealthit.org/tags"/>
            <code value="smart-8-2017"/>
          </tag>
        </meta>
        <id value="smart-Observation-1755-lab"/>
        <text>
          <status value="generated"/>
          <div xmlns="http://www.w3.org/1999/xhtml">
            2008-04-05: RDW RBC-Rto = 12.9 %
          </div>
        </text>
        <category>
          <coding>
            <system value="http://hl7.org/fhir/observation-category"/>
            <code value="laboratory"/>
            <display value="Laboratory"/>
          </coding>
          <text value="Laboratory"/>
        </category>
        <code>
          <coding>
            <system value="http://loinc.org"/>
            <code value="30385-9"/>
            <display value="RDW RBC-Rto"/>
          </coding>
          <text value="RDW RBC-Rto"/>
        </code>
        <valueQuantity>
          <value value="12.9"/>
          <unit value="%"/>
          <system value="http://unitsofmeasure.org"/>
          <code value=""/>
        </valueQuantity>
        <effectiveDateTime value="2008-04-05"/>
        <status value="final"/>
        <subject>
          <reference value="Patient/smart-767980"/>
        </subject>
        <referenceRange>
          <meaning>
            <coding>
              <system value="http://hl7.org/fhir/referencerange-meaning"/>
              <code value="normal"/>
              <display value="Normal Range"/>
            </coding>
            <text value="Normal Range"/>
          </meaning>
          <low>
            <value value="11.5"/>
            <unit value="%"/>
            <code value="%"/>
            <system value="http://unitsofmeasure.org"/>
          </low>
          <high>
            <value value="14.0"/>
            <unit value="%"/>
            <code value="%"/>
            <system value="http://unitsofmeasure.org"/>
          </high>
        </referenceRange>
      </Observation>
    </resource>
    <request>
      <method value="PUT"/>
      <url value="Observation/smart-Observation-1755-lab"/>
    </request>
  </entry>
  <entry>
    <resource>
      <Observation>
        <meta>
          <tag>
            <system value="https://smarthealthit.org/tags"/>
            <code value="smart-8-2017"/>
          </tag>
        </meta>
        <id value="smart-Observation-1756-lab"/>
        <text>
          <status value="generated"/>
          <div xmlns="http://www.w3.org/1999/xhtml">
            2008-04-05: Calcium SerPl-mCnc = 9 mg/dL
          </div>
        </text>
        <category>
          <coding>
            <system value="http://hl7.org/fhir/observation-category"/>
            <code value="laboratory"/>
            <display value="Laboratory"/>
          </coding>
          <text value="Laboratory"/>
        </category>
        <code>
          <coding>
            <system value="http://loinc.org"/>
            <code value="17861-6"/>
            <display value="Calcium SerPl-mCnc"/>
          </coding>
          <text value="Calcium SerPl-mCnc"/>
        </code>
        <valueQuantity>
          <value value="9.0"/>
          <unit value="mg/dL"/>
          <system value="http://unitsofmeasure.org"/>
          <code value=""/>
        </valueQuantity>
        <effectiveDateTime value="2008-04-05"/>
        <status value="final"/>
        <subject>
          <reference value="Patient/smart-767980"/>
        </subject>
        <referenceRange>
          <meaning>
            <coding>
              <system value="http://hl7.org/fhir/referencerange-meaning"/>
              <code value="normal"/>
              <display value="Normal Range"/>
            </coding>
            <text value="Normal Range"/>
          </meaning>
          <low>
            <value value="8.4"/>
            <unit value="mg/dL"/>
            <code value="mg/dL"/>
            <system value="http://unitsofmeasure.org"/>
          </low>
          <high>
            <value value="10.2"/>
            <unit value="mg/dL"/>
            <code value="mg/dL"/>
            <system value="http://unitsofmeasure.org"/>
          </high>
        </referenceRange>
      </Observation>
    </resource>
    <request>
      <method value="PUT"/>
      <url value="Observation/smart-Observation-1756-lab"/>
    </request>
  </entry>
  <entry>
    <resource>
      <Observation>
        <meta>
          <tag>
            <system value="https://smarthealthit.org/tags"/>
            <code value="smart-8-2017"/>
          </tag>
        </meta>
        <id value="smart-Observation-1757-lab"/>
        <text>
          <status value="generated"/>
          <div xmlns="http://www.w3.org/1999/xhtml">
            2008-04-05: Sodium SerPl-sCnc = 142 mmol/L
          </div>
        </text>
        <category>
          <coding>
            <system value="http://hl7.org/fhir/observation-category"/>
            <code value="laboratory"/>
            <display value="Laboratory"/>
          </coding>
          <text value="Laboratory"/>
        </category>
        <code>
          <coding>
            <system value="http://loinc.org"/>
            <code value="2951-2"/>
            <display value="Sodium SerPl-sCnc"/>
          </coding>
          <text value="Sodium SerPl-sCnc"/>
        </code>
        <valueQuantity>
          <value value="142.0"/>
          <unit value="mmol/L"/>
          <system value="http://unitsofmeasure.org"/>
          <code value=""/>
        </valueQuantity>
        <effectiveDateTime value="2008-04-05"/>
        <status value="final"/>
        <subject>
          <reference value="Patient/smart-767980"/>
        </subject>
        <referenceRange>
          <meaning>
            <coding>
              <system value="http://hl7.org/fhir/referencerange-meaning"/>
              <code value="normal"/>
              <display value="Normal Range"/>
            </coding>
            <text value="Normal Range"/>
          </meaning>
          <low>
            <value value="137.0"/>
            <unit value="mmol/L"/>
            <code value="mmol/L"/>
            <system value="http://unitsofmeasure.org"/>
          </low>
          <high>
            <value value="145.0"/>
            <unit value="mmol/L"/>
            <code value="mmol/L"/>
            <system value="http://unitsofmeasure.org"/>
          </high>
        </referenceRange>
      </Observation>
    </resource>
    <request>
      <method value="PUT"/>
      <url value="Observation/smart-Observation-1757-lab"/>
    </request>
  </entry>
  <entry>
    <resource>
      <Observation>
        <meta>
          <tag>
            <system value="https://smarthealthit.org/tags"/>
            <code value="smart-8-2017"/>
          </tag>
        </meta>
        <id value="smart-Observation-1758-lab"/>
        <text>
          <status value="generated"/>
          <div xmlns="http://www.w3.org/1999/xhtml">
            2008-04-05: Creat SerPl-mCnc = 1.1 mg/dL
          </div>
        </text>
        <category>
          <coding>
            <system value="http://hl7.org/fhir/observation-category"/>
            <code value="laboratory"/>
            <display value="Laboratory"/>
          </coding>
          <text value="Laboratory"/>
        </category>
        <code>
          <coding>
            <system value="http://loinc.org"/>
            <code value="2160-0"/>
            <display value="Creat SerPl-mCnc"/>
          </coding>
          <text value="Creat SerPl-mCnc"/>
        </code>
        <valueQuantity>
          <value value="1.1"/>
          <unit value="mg/dL"/>
          <system value="http://unitsofmeasure.org"/>
          <code value=""/>
        </valueQuantity>
        <effectiveDateTime value="2008-04-05"/>
        <status value="final"/>
        <subject>
          <reference value="Patient/smart-767980"/>
        </subject>
        <referenceRange>
          <meaning>
            <coding>
              <system value="http://hl7.org/fhir/referencerange-meaning"/>
              <code value="normal"/>
              <display value="Normal Range"/>
            </coding>
            <text value="Normal Range"/>
          </meaning>
          <low>
            <value value="0.8"/>
            <unit value="mg/dL"/>
            <code value="mg/dL"/>
            <system value="http://unitsofmeasure.org"/>
          </low>
          <high>
            <value value="1.5"/>
            <unit value="mg/dL"/>
            <code value="mg/dL"/>
            <system value="http://unitsofmeasure.org"/>
          </high>
        </referenceRange>
      </Observation>
    </resource>
    <request>
      <method value="PUT"/>
      <url value="Observation/smart-Observation-1758-lab"/>
    </request>
  </entry>
  <entry>
    <resource>
      <Observation>
        <meta>
          <tag>
            <system value="https://smarthealthit.org/tags"/>
            <code value="smart-8-2017"/>
          </tag>
        </meta>
        <id value="smart-Observation-1759-lab"/>
        <text>
          <status value="generated"/>
          <div xmlns="http://www.w3.org/1999/xhtml">
            2008-04-05: Potassium SerPl-sCnc = 3.9 mmol/L
          </div>
        </text>
        <category>
          <coding>
            <system value="http://hl7.org/fhir/observation-category"/>
            <code value="laboratory"/>
            <display value="Laboratory"/>
          </coding>
          <text value="Laboratory"/>
        </category>
        <code>
          <coding>
            <system value="http://loinc.org"/>
            <code value="2823-3"/>
            <display value="Potassium SerPl-sCnc"/>
          </coding>
          <text value="Potassium SerPl-sCnc"/>
        </code>
        <valueQuantity>
          <value value="3.9"/>
          <unit value="mmol/L"/>
          <system value="http://unitsofmeasure.org"/>
          <code value=""/>
        </valueQuantity>
        <effectiveDateTime value="2008-04-05"/>
        <status value="final"/>
        <subject>
          <reference value="Patient/smart-767980"/>
        </subject>
        <referenceRange>
          <meaning>
            <coding>
              <system value="http://hl7.org/fhir/referencerange-meaning"/>
              <code value="normal"/>
              <display value="Normal Range"/>
            </coding>
            <text value="Normal Range"/>
          </meaning>
          <low>
            <value value="3.6"/>
            <unit value="mmol/L"/>
            <code value="mmol/L"/>
            <system value="http://unitsofmeasure.org"/>
          </low>
          <high>
            <value value="5.5"/>
            <unit value="mmol/L"/>
            <code value="mmol/L"/>
            <system value="http://unitsofmeasure.org"/>
          </high>
        </referenceRange>
      </Observation>
    </resource>
    <request>
      <method value="PUT"/>
      <url value="Observation/smart-Observation-1759-lab"/>
    </request>
  </entry>
  <entry>
    <resource>
      <Observation>
        <meta>
          <tag>
            <system value="https://smarthealthit.org/tags"/>
            <code value="smart-8-2017"/>
          </tag>
        </meta>
        <id value="smart-Observation-1760-lab"/>
        <text>
          <status value="generated"/>
          <div xmlns="http://www.w3.org/1999/xhtml">
            2008-04-05: Chloride SerPl-sCnc = 105 mmol/L
          </div>
        </text>
        <category>
          <coding>
            <system value="http://hl7.org/fhir/observation-category"/>
            <code value="laboratory"/>
            <display value="Laboratory"/>
          </coding>
          <text value="Laboratory"/>
        </category>
        <code>
          <coding>
            <system value="http://loinc.org"/>
            <code value="2075-0"/>
            <display value="Chloride SerPl-sCnc"/>
          </coding>
          <text value="Chloride SerPl-sCnc"/>
        </code>
        <valueQuantity>
          <value value="105.0"/>
          <unit value="mmol/L"/>
          <system value="http://unitsofmeasure.org"/>
          <code value=""/>
        </valueQuantity>
        <effectiveDateTime value="2008-04-05"/>
        <status value="final"/>
        <subject>
          <reference value="Patient/smart-767980"/>
        </subject>
        <referenceRange>
          <meaning>
            <coding>
              <system value="http://hl7.org/fhir/referencerange-meaning"/>
              <code value="normal"/>
              <display value="Normal Range"/>
            </coding>
            <text value="Normal Range"/>
          </meaning>
          <low>
            <value value="98.0"/>
            <unit value="mmol/L"/>
            <code value="mmol/L"/>
            <system value="http://unitsofmeasure.org"/>
          </low>
          <high>
            <value value="107.0"/>
            <unit value="mmol/L"/>
            <code value="mmol/L"/>
            <system value="http://unitsofmeasure.org"/>
          </high>
        </referenceRange>
      </Observation>
    </resource>
    <request>
      <method value="PUT"/>
      <url value="Observation/smart-Observation-1760-lab"/>
    </request>
  </entry>
  <entry>
    <resource>
      <Observation>
        <meta>
          <tag>
            <system value="https://smarthealthit.org/tags"/>
            <code value="smart-8-2017"/>
          </tag>
        </meta>
        <id value="smart-Observation-1761-lab"/>
        <text>
          <status value="generated"/>
          <div xmlns="http://www.w3.org/1999/xhtml">
            2008-04-05: Neutrophils NFr Bld = 65 %
          </div>
        </text>
        <category>
          <coding>
            <system value="http://hl7.org/fhir/observation-category"/>
            <code value="laboratory"/>
            <display value="Laboratory"/>
          </coding>
          <text value="Laboratory"/>
        </category>
        <code>
          <coding>
            <system value="http://loinc.org"/>
            <code value="26511-6"/>
            <display value="Neutrophils NFr Bld"/>
          </coding>
          <text value="Neutrophils NFr Bld"/>
        </code>
        <valueQuantity>
          <value value="65.0"/>
          <unit value="%"/>
          <system value="http://unitsofmeasure.org"/>
          <code value=""/>
        </valueQuantity>
        <effectiveDateTime value="2008-04-05"/>
        <status value="final"/>
        <subject>
          <reference value="Patient/smart-767980"/>
        </subject>
        <referenceRange>
          <meaning>
            <coding>
              <system value="http://hl7.org/fhir/referencerange-meaning"/>
              <code value="normal"/>
              <display value="Normal Range"/>
            </coding>
            <text value="Normal Range"/>
          </meaning>
          <low>
            <value value="44.0"/>
            <unit value="%"/>
            <code value="%"/>
            <system value="http://unitsofmeasure.org"/>
          </low>
          <high>
            <value value="74.0"/>
            <unit value="%"/>
            <code value="%"/>
            <system value="http://unitsofmeasure.org"/>
          </high>
        </referenceRange>
      </Observation>
    </resource>
    <request>
      <method value="PUT"/>
      <url value="Observation/smart-Observation-1761-lab"/>
    </request>
  </entry>
  <entry>
    <resource>
      <Observation>
        <meta>
          <tag>
            <system value="https://smarthealthit.org/tags"/>
            <code value="smart-8-2017"/>
          </tag>
        </meta>
        <id value="smart-Observation-1762-lab"/>
        <text>
          <status value="generated"/>
          <div xmlns="http://www.w3.org/1999/xhtml">
            2008-04-05: Lymphocytes NFr Bld = 27 %
          </div>
        </text>
        <category>
          <coding>
            <system value="http://hl7.org/fhir/observation-category"/>
            <code value="laboratory"/>
            <display value="Laboratory"/>
          </coding>
          <text value="Laboratory"/>
        </category>
        <code>
          <coding>
            <system value="http://loinc.org"/>
            <code value="26478-8"/>
            <display value="Lymphocytes NFr Bld"/>
          </coding>
          <text value="Lymphocytes NFr Bld"/>
        </code>
        <valueQuantity>
          <value value="27.0"/>
          <unit value="%"/>
          <system value="http://unitsofmeasure.org"/>
          <code value=""/>
        </valueQuantity>
        <effectiveDateTime value="2008-04-05"/>
        <status value="final"/>
        <subject>
          <reference value="Patient/smart-767980"/>
        </subject>
        <referenceRange>
          <meaning>
            <coding>
              <system value="http://hl7.org/fhir/referencerange-meaning"/>
              <code value="normal"/>
              <display value="Normal Range"/>
            </coding>
            <text value="Normal Range"/>
          </meaning>
          <low>
            <value value="20.0"/>
            <unit value="%"/>
            <code value="%"/>
            <system value="http://unitsofmeasure.org"/>
          </low>
          <high>
            <value value="50.0"/>
            <unit value="%"/>
            <code value="%"/>
            <system value="http://unitsofmeasure.org"/>
          </high>
        </referenceRange>
      </Observation>
    </resource>
    <request>
      <method value="PUT"/>
      <url value="Observation/smart-Observation-1762-lab"/>
    </request>
  </entry>
  <entry>
    <resource>
      <Observation>
        <meta>
          <tag>
            <system value="https://smarthealthit.org/tags"/>
            <code value="smart-8-2017"/>
          </tag>
        </meta>
        <id value="smart-Observation-1763-lab"/>
        <text>
          <status value="generated"/>
          <div xmlns="http://www.w3.org/1999/xhtml">
            2008-04-05: Eosinophil NFr Bld = 2 %
          </div>
        </text>
        <category>
          <coding>
            <system value="http://hl7.org/fhir/observation-category"/>
            <code value="laboratory"/>
            <display value="Laboratory"/>
          </coding>
          <text value="Laboratory"/>
        </category>
        <code>
          <coding>
            <system value="http://loinc.org"/>
            <code value="26450-7"/>
            <display value="Eosinophil NFr Bld"/>
          </coding>
          <text value="Eosinophil NFr Bld"/>
        </code>
        <valueQuantity>
          <value value="2.0"/>
          <unit value="%"/>
          <system value="http://unitsofmeasure.org"/>
          <code value=""/>
        </valueQuantity>
        <effectiveDateTime value="2008-04-05"/>
        <status value="final"/>
        <subject>
          <reference value="Patient/smart-767980"/>
        </subject>
        <referenceRange>
          <meaning>
            <coding>
              <system value="http://hl7.org/fhir/referencerange-meaning"/>
              <code value="normal"/>
              <display value="Normal Range"/>
            </coding>
            <text value="Normal Range"/>
          </meaning>
          <low>
            <value value="0.0"/>
            <unit value="%"/>
            <code value="%"/>
            <system value="http://unitsofmeasure.org"/>
          </low>
          <high>
            <value value="7.0"/>
            <unit value="%"/>
            <code value="%"/>
            <system value="http://unitsofmeasure.org"/>
          </high>
        </referenceRange>
      </Observation>
    </resource>
    <request>
      <method value="PUT"/>
      <url value="Observation/smart-Observation-1763-lab"/>
    </request>
  </entry>
  <entry>
    <resource>
      <Observation>
        <meta>
          <tag>
            <system value="https://smarthealthit.org/tags"/>
            <code value="smart-8-2017"/>
          </tag>
        </meta>
        <id value="smart-Observation-1764-lab"/>
        <text>
          <status value="generated"/>
          <div xmlns="http://www.w3.org/1999/xhtml">
            2008-04-05: Hgb Bld-mCnc = 17.5 g/dL
          </div>
        </text>
        <category>
          <coding>
            <system value="http://hl7.org/fhir/observation-category"/>
            <code value="laboratory"/>
            <display value="Laboratory"/>
          </coding>
          <text value="Laboratory"/>
        </category>
        <code>
          <coding>
            <system value="http://loinc.org"/>
            <code value="718-7"/>
            <display value="Hgb Bld-mCnc"/>
          </coding>
          <text value="Hgb Bld-mCnc"/>
        </code>
        <valueQuantity>
          <value value="17.5"/>
          <unit value="g/dL"/>
          <system value="http://unitsofmeasure.org"/>
          <code value=""/>
        </valueQuantity>
        <effectiveDateTime value="2008-04-05"/>
        <status value="final"/>
        <subject>
          <reference value="Patient/smart-767980"/>
        </subject>
        <referenceRange>
          <meaning>
            <coding>
              <system value="http://hl7.org/fhir/referencerange-meaning"/>
              <code value="normal"/>
              <display value="Normal Range"/>
            </coding>
            <text value="Normal Range"/>
          </meaning>
          <low>
            <value value="13.5"/>
            <unit value="g/dL"/>
            <code value="g/dL"/>
            <system value="http://unitsofmeasure.org"/>
          </low>
          <high>
            <value value="18.0"/>
            <unit value="g/dL"/>
            <code value="g/dL"/>
            <system value="http://unitsofmeasure.org"/>
          </high>
        </referenceRange>
      </Observation>
    </resource>
    <request>
      <method value="PUT"/>
      <url value="Observation/smart-Observation-1764-lab"/>
    </request>
  </entry>
  <entry>
    <resource>
      <Observation>
        <meta>
          <tag>
            <system value="https://smarthealthit.org/tags"/>
            <code value="smart-8-2017"/>
          </tag>
        </meta>
        <id value="smart-Observation-1765-lab"/>
        <text>
          <status value="generated"/>
          <div xmlns="http://www.w3.org/1999/xhtml">
            2008-04-05: WBC # Bld = 9.8 10*3/uL
          </div>
        </text>
        <category>
          <coding>
            <system value="http://hl7.org/fhir/observation-category"/>
            <code value="laboratory"/>
            <display value="Laboratory"/>
          </coding>
          <text value="Laboratory"/>
        </category>
        <code>
          <coding>
            <system value="http://loinc.org"/>
            <code value="26464-8"/>
            <display value="WBC # Bld"/>
          </coding>
          <text value="WBC # Bld"/>
        </code>
        <valueQuantity>
          <value value="9.8"/>
          <unit value="10*3/uL"/>
          <system value="http://unitsofmeasure.org"/>
          <code value=""/>
        </valueQuantity>
        <effectiveDateTime value="2008-04-05"/>
        <status value="final"/>
        <subject>
          <reference value="Patient/smart-767980"/>
        </subject>
        <referenceRange>
          <meaning>
            <coding>
              <system value="http://hl7.org/fhir/referencerange-meaning"/>
              <code value="normal"/>
              <display value="Normal Range"/>
            </coding>
            <text value="Normal Range"/>
          </meaning>
          <low>
            <value value="4.0"/>
            <unit value="10*3/uL"/>
            <code value="10*3/uL"/>
            <system value="http://unitsofmeasure.org"/>
          </low>
          <high>
            <value value="10.5"/>
            <unit value="10*3/uL"/>
            <code value="10*3/uL"/>
            <system value="http://unitsofmeasure.org"/>
          </high>
        </referenceRange>
      </Observation>
    </resource>
    <request>
      <method value="PUT"/>
      <url value="Observation/smart-Observation-1765-lab"/>
    </request>
  </entry>
  <entry>
    <resource>
      <Observation>
        <meta>
          <tag>
            <system value="https://smarthealthit.org/tags"/>
            <code value="smart-8-2017"/>
          </tag>
        </meta>
        <id value="smart-Observation-1766-lab"/>
        <text>
          <status value="generated"/>
          <div xmlns="http://www.w3.org/1999/xhtml">
            2008-04-05: RBC # Bld Auto = 5.44 10*6/uL
          </div>
        </text>
        <category>
          <coding>
            <system value="http://hl7.org/fhir/observation-category"/>
            <code value="laboratory"/>
            <display value="Laboratory"/>
          </coding>
          <text value="Laboratory"/>
        </category>
        <code>
          <coding>
            <system value="http://loinc.org"/>
            <code value="789-8"/>
            <display value="RBC # Bld Auto"/>
          </coding>
          <text value="RBC # Bld Auto"/>
        </code>
        <valueQuantity>
          <value value="5.44"/>
          <unit value="10*6/uL"/>
          <system value="http://unitsofmeasure.org"/>
          <code value=""/>
        </valueQuantity>
        <effectiveDateTime value="2008-04-05"/>
        <status value="final"/>
        <subject>
          <reference value="Patient/smart-767980"/>
        </subject>
        <referenceRange>
          <meaning>
            <coding>
              <system value="http://hl7.org/fhir/referencerange-meaning"/>
              <code value="normal"/>
              <display value="Normal Range"/>
            </coding>
            <text value="Normal Range"/>
          </meaning>
          <low>
            <value value="4.7"/>
            <unit value="10*6/uL"/>
            <code value="10*6/uL"/>
            <system value="http://unitsofmeasure.org"/>
          </low>
          <high>
            <value value="6.0"/>
            <unit value="10*6/uL"/>
            <code value="10*6/uL"/>
            <system value="http://unitsofmeasure.org"/>
          </high>
        </referenceRange>
      </Observation>
    </resource>
    <request>
      <method value="PUT"/>
      <url value="Observation/smart-Observation-1766-lab"/>
    </request>
  </entry>
  <entry>
    <resource>
      <Observation>
        <meta>
          <tag>
            <system value="https://smarthealthit.org/tags"/>
            <code value="smart-8-2017"/>
          </tag>
        </meta>
        <id value="smart-Observation-1767-lab"/>
        <text>
          <status value="generated"/>
          <div xmlns="http://www.w3.org/1999/xhtml">
            2008-04-05: Platelet # Bld = 248 10*3/uL
          </div>
        </text>
        <category>
          <coding>
            <system value="http://hl7.org/fhir/observation-category"/>
            <code value="laboratory"/>
            <display value="Laboratory"/>
          </coding>
          <text value="Laboratory"/>
        </category>
        <code>
          <coding>
            <system value="http://loinc.org"/>
            <code value="26515-7"/>
            <display value="Platelet # Bld"/>
          </coding>
          <text value="Platelet # Bld"/>
        </code>
        <valueQuantity>
          <value value="248.0"/>
          <unit value="10*3/uL"/>
          <system value="http://unitsofmeasure.org"/>
          <code value=""/>
        </valueQuantity>
        <effectiveDateTime value="2008-04-05"/>
        <status value="final"/>
        <subject>
          <reference value="Patient/smart-767980"/>
        </subject>
        <referenceRange>
          <meaning>
            <coding>
              <system value="http://hl7.org/fhir/referencerange-meaning"/>
              <code value="normal"/>
              <display value="Normal Range"/>
            </coding>
            <text value="Normal Range"/>
          </meaning>
          <low>
            <value value="150.0"/>
            <unit value="10*3/uL"/>
            <code value="10*3/uL"/>
            <system value="http://unitsofmeasure.org"/>
          </low>
          <high>
            <value value="450.0"/>
            <unit value="10*3/uL"/>
            <code value="10*3/uL"/>
            <system value="http://unitsofmeasure.org"/>
          </high>
        </referenceRange>
      </Observation>
    </resource>
    <request>
      <method value="PUT"/>
      <url value="Observation/smart-Observation-1767-lab"/>
    </request>
  </entry>
  <entry>
    <resource>
      <Observation>
        <meta>
          <tag>
            <system value="https://smarthealthit.org/tags"/>
            <code value="smart-8-2017"/>
          </tag>
        </meta>
        <id value="smart-Observation-1768-lab"/>
        <text>
          <status value="generated"/>
          <div xmlns="http://www.w3.org/1999/xhtml">
            2008-04-05: MCV RBC = 90.8 fL
          </div>
        </text>
        <category>
          <coding>
            <system value="http://hl7.org/fhir/observation-category"/>
            <code value="laboratory"/>
            <display value="Laboratory"/>
          </coding>
          <text value="Laboratory"/>
        </category>
        <code>
          <coding>
            <system value="http://loinc.org"/>
            <code value="30428-7"/>
            <display value="MCV RBC"/>
          </coding>
          <text value="MCV RBC"/>
        </code>
        <valueQuantity>
          <value value="90.8"/>
          <unit value="fL"/>
          <system value="http://unitsofmeasure.org"/>
          <code value=""/>
        </valueQuantity>
        <effectiveDateTime value="2008-04-05"/>
        <status value="final"/>
        <subject>
          <reference value="Patient/smart-767980"/>
        </subject>
        <referenceRange>
          <meaning>
            <coding>
              <system value="http://hl7.org/fhir/referencerange-meaning"/>
              <code value="normal"/>
              <display value="Normal Range"/>
            </coding>
            <text value="Normal Range"/>
          </meaning>
          <low>
            <value value="78.0"/>
            <unit value="fL"/>
            <code value="fL"/>
            <system value="http://unitsofmeasure.org"/>
          </low>
          <high>
            <value value="100.0"/>
            <unit value="fL"/>
            <code value="fL"/>
            <system value="http://unitsofmeasure.org"/>
          </high>
        </referenceRange>
      </Observation>
    </resource>
    <request>
      <method value="PUT"/>
      <url value="Observation/smart-Observation-1768-lab"/>
    </request>
  </entry>
  <entry>
    <resource>
      <Observation>
        <meta>
          <tag>
            <system value="https://smarthealthit.org/tags"/>
            <code value="smart-8-2017"/>
          </tag>
        </meta>
        <id value="smart-Observation-1769-lab"/>
        <text>
          <status value="generated"/>
          <div xmlns="http://www.w3.org/1999/xhtml">
            2008-04-05: MCH RBC Qn Auto = 32.2 pg
          </div>
        </text>
        <category>
          <coding>
            <system value="http://hl7.org/fhir/observation-category"/>
            <code value="laboratory"/>
            <display value="Laboratory"/>
          </coding>
          <text value="Laboratory"/>
        </category>
        <code>
          <coding>
            <system value="http://loinc.org"/>
            <code value="785-6"/>
            <display value="MCH RBC Qn Auto"/>
          </coding>
          <text value="MCH RBC Qn Auto"/>
        </code>
        <valueQuantity>
          <value value="32.2"/>
          <unit value="pg"/>
          <system value="http://unitsofmeasure.org"/>
          <code value=""/>
        </valueQuantity>
        <effectiveDateTime value="2008-04-05"/>
        <status value="final"/>
        <subject>
          <reference value="Patient/smart-767980"/>
        </subject>
        <referenceRange>
          <meaning>
            <coding>
              <system value="http://hl7.org/fhir/referencerange-meaning"/>
              <code value="normal"/>
              <display value="Normal Range"/>
            </coding>
            <text value="Normal Range"/>
          </meaning>
          <low>
            <value value="27.0"/>
            <unit value="pg"/>
            <code value="pg"/>
            <system value="http://unitsofmeasure.org"/>
          </low>
          <high>
            <value value="31.0"/>
            <unit value="pg"/>
            <code value="pg"/>
            <system value="http://unitsofmeasure.org"/>
          </high>
        </referenceRange>
      </Observation>
    </resource>
    <request>
      <method value="PUT"/>
      <url value="Observation/smart-Observation-1769-lab"/>
    </request>
  </entry>
  <entry>
    <resource>
      <Observation>
        <meta>
          <tag>
            <system value="https://smarthealthit.org/tags"/>
            <code value="smart-8-2017"/>
          </tag>
        </meta>
        <id value="smart-Observation-1770-lab"/>
        <text>
          <status value="generated"/>
          <div xmlns="http://www.w3.org/1999/xhtml">
            2008-04-05: MCHC RBC Auto-mCnc = 35.5 g/dL
          </div>
        </text>
        <category>
          <coding>
            <system value="http://hl7.org/fhir/observation-category"/>
            <code value="laboratory"/>
            <display value="Laboratory"/>
          </coding>
          <text value="Laboratory"/>
        </category>
        <code>
          <coding>
            <system value="http://loinc.org"/>
            <code value="786-4"/>
            <display value="MCHC RBC Auto-mCnc"/>
          </coding>
          <text value="MCHC RBC Auto-mCnc"/>
        </code>
        <valueQuantity>
          <value value="35.5"/>
          <unit value="g/dL"/>
          <system value="http://unitsofmeasure.org"/>
          <code value=""/>
        </valueQuantity>
        <effectiveDateTime value="2008-04-05"/>
        <status value="final"/>
        <subject>
          <reference value="Patient/smart-767980"/>
        </subject>
        <referenceRange>
          <meaning>
            <coding>
              <system value="http://hl7.org/fhir/referencerange-meaning"/>
              <code value="normal"/>
              <display value="Normal Range"/>
            </coding>
            <text value="Normal Range"/>
          </meaning>
          <low>
            <value value="32.0"/>
            <unit value="g/dL"/>
            <code value="g/dL"/>
            <system value="http://unitsofmeasure.org"/>
          </low>
          <high>
            <value value="36.0"/>
            <unit value="g/dL"/>
            <code value="g/dL"/>
            <system value="http://unitsofmeasure.org"/>
          </high>
        </referenceRange>
      </Observation>
    </resource>
    <request>
      <method value="PUT"/>
      <url value="Observation/smart-Observation-1770-lab"/>
    </request>
  </entry>
  <entry>
    <resource>
      <MedicationOrder>
        <meta>
          <tag>
            <system value="https://smarthealthit.org/tags"/>
            <code value="smart-8-2017"/>
          </tag>
        </meta>
        <id value="smart-MedicationOrder-52"/>
        <text>
          <status value="generated"/>
          <div xmlns="http://www.w3.org/1999/xhtml">
            Cephalexin 500 MG Oral Capsule (rxnorm: 309114)
          </div>
        </text>
        <status value="active"/>
        <patient>
          <reference value="Patient/smart-767980"/>
        </patient>
        <medicationCodeableConcept>
          <coding>
            <system value="http://www.nlm.nih.gov/research/umls/rxnorm"/>
            <code value="309114"/>
            <display value="Cephalexin 500 MG Oral Capsule"/>
          </coding>
          <text value="Cephalexin 500 MG Oral Capsule"/>
        </medicationCodeableConcept>
        <dosageInstruction>
          <timing>
            <repeat>
              <boundsPeriod>
                <start value="2004-10-18"/>
              </boundsPeriod>
              <frequency value="4"/>
              <period value="1"/>
              <periodUnits value="d"/>
            </repeat>
          </timing>
          <doseQuantity>
            <value value="1"/>
            <unit value="{tablet}"/>
            <system value="http://unitsofmeasure.org"/>
            <code value="{tablet}"/>
          </doseQuantity>
          <text value="1 qid"/>
        </dosageInstruction>
        <dispenseRequest>
          <numberOfRepeatsAllowed value="1"/>
          <quantity>
            <value value="40"/>
            <unit value="{tablet}"/>
            <system value="http://unitsofmeasure.org"/>
            <code value="{tablet}"/>
          </quantity>
          <expectedSupplyDuration>
            <value value="10"/>
            <unit value="days"/>
            <system value="http://unitsofmeasure.org"/>
            <code value="d"/>
          </expectedSupplyDuration>
        </dispenseRequest>
      </MedicationOrder>
    </resource>
    <request>
      <method value="PUT"/>
      <url value="MedicationOrder/smart-MedicationOrder-52"/>
    </request>
  </entry>
  <entry>
    <resource>
      <MedicationDispense>
        <meta>
          <tag>
            <system value="https://smarthealthit.org/tags"/>
            <code value="smart-8-2017"/>
          </tag>
        </meta>
        <id value="smart-MedicationDispense-544"/>
        <text>
          <status value="generated"/>
          <div xmlns="http://www.w3.org/1999/xhtml">
            Dispensed 40 tablets = 10 day supply of Cephalexin 500 MG Oral Capsule
          </div>
        </text>
        <status value="completed"/>
        <patient>
          <reference value="Patient/smart-767980"/>
        </patient>
        <authorizingPrescription>
          <reference value="MedicationOrder/smart-MedicationOrder-52"/>
        </authorizingPrescription>
        <quantity>
          <value value="40"/>
          <unit value="tablets"/>
          <system value="http://unitsofmeasure.org"/>
          <code value="{tablets}"/>
        </quantity>
        <daysSupply>
          <value value="10"/>
          <unit value="days"/>
          <system value="http://unitsofmeasure.org"/>
          <code value="d"/>
        </daysSupply>
        <medicationCodeableConcept>
          <coding>
            <system value="http://www.nlm.nih.gov/research/umls/rxnorm"/>
            <code value="309114"/>
            <display value="Cephalexin 500 MG Oral Capsule"/>
          </coding>
          <text value="Cephalexin 500 MG Oral Capsule"/>
        </medicationCodeableConcept>
        <whenHandedOver value="2008-08-03"/>
      </MedicationDispense>
    </resource>
    <request>
      <method value="PUT"/>
      <url value="MedicationDispense/smart-MedicationDispense-544"/>
    </request>
  </entry>
  <entry>
    <resource>
      <MedicationDispense>
        <meta>
          <tag>
            <system value="https://smarthealthit.org/tags"/>
            <code value="smart-8-2017"/>
          </tag>
        </meta>
        <id value="smart-MedicationDispense-543"/>
        <text>
          <status value="generated"/>
          <div xmlns="http://www.w3.org/1999/xhtml">
            Dispensed 40 tablets = 10 day supply of Cephalexin 500 MG Oral Capsule
          </div>
        </text>
        <status value="completed"/>
        <patient>
          <reference value="Patient/smart-767980"/>
        </patient>
        <authorizingPrescription>
          <reference value="MedicationOrder/smart-MedicationOrder-52"/>
        </authorizingPrescription>
        <quantity>
          <value value="40"/>
          <unit value="tablets"/>
          <system value="http://unitsofmeasure.org"/>
          <code value="{tablets}"/>
        </quantity>
        <daysSupply>
          <value value="10"/>
          <unit value="days"/>
          <system value="http://unitsofmeasure.org"/>
          <code value="d"/>
        </daysSupply>
        <medicationCodeableConcept>
          <coding>
            <system value="http://www.nlm.nih.gov/research/umls/rxnorm"/>
            <code value="309114"/>
            <display value="Cephalexin 500 MG Oral Capsule"/>
          </coding>
          <text value="Cephalexin 500 MG Oral Capsule"/>
        </medicationCodeableConcept>
        <whenHandedOver value="2008-06-11"/>
      </MedicationDispense>
    </resource>
    <request>
      <method value="PUT"/>
      <url value="MedicationDispense/smart-MedicationDispense-543"/>
    </request>
  </entry>
  <entry>
    <resource>
      <MedicationDispense>
        <meta>
          <tag>
            <system value="https://smarthealthit.org/tags"/>
            <code value="smart-8-2017"/>
          </tag>
        </meta>
        <id value="smart-MedicationDispense-545"/>
        <text>
          <status value="generated"/>
          <div xmlns="http://www.w3.org/1999/xhtml">
            Dispensed 40 tablets = 10 day supply of Cephalexin 500 MG Oral Capsule
          </div>
        </text>
        <status value="completed"/>
        <patient>
          <reference value="Patient/smart-767980"/>
        </patient>
        <authorizingPrescription>
          <reference value="MedicationOrder/smart-MedicationOrder-52"/>
        </authorizingPrescription>
        <quantity>
          <value value="40"/>
          <unit value="tablets"/>
          <system value="http://unitsofmeasure.org"/>
          <code value="{tablets}"/>
        </quantity>
        <daysSupply>
          <value value="10"/>
          <unit value="days"/>
          <system value="http://unitsofmeasure.org"/>
          <code value="d"/>
        </daysSupply>
        <medicationCodeableConcept>
          <coding>
            <system value="http://www.nlm.nih.gov/research/umls/rxnorm"/>
            <code value="309114"/>
            <display value="Cephalexin 500 MG Oral Capsule"/>
          </coding>
          <text value="Cephalexin 500 MG Oral Capsule"/>
        </medicationCodeableConcept>
        <whenHandedOver value="2009-07-05"/>
      </MedicationDispense>
    </resource>
    <request>
      <method value="PUT"/>
      <url value="MedicationDispense/smart-MedicationDispense-545"/>
    </request>
  </entry>
  <entry>
    <resource>
      <MedicationOrder>
        <meta>
          <tag>
            <system value="https://smarthealthit.org/tags"/>
            <code value="smart-8-2017"/>
          </tag>
        </meta>
        <id value="smart-MedicationOrder-53"/>
        <text>
          <status value="generated"/>
          <div xmlns="http://www.w3.org/1999/xhtml">
            Metoprolol 50 MG Oral Tablet (rxnorm: 866514)
          </div>
        </text>
        <status value="active"/>
        <patient>
          <reference value="Patient/smart-767980"/>
        </patient>
        <medicationCodeableConcept>
          <coding>
            <system value="http://www.nlm.nih.gov/research/umls/rxnorm"/>
            <code value="866514"/>
            <display value="Metoprolol 50 MG Oral Tablet"/>
          </coding>
          <text value="Metoprolol 50 MG Oral Tablet"/>
        </medicationCodeableConcept>
        <dosageInstruction>
          <timing>
            <repeat>
              <boundsPeriod>
                <start value="2004-10-29"/>
              </boundsPeriod>
              <frequency value="2"/>
              <period value="1"/>
              <periodUnits value="d"/>
            </repeat>
          </timing>
          <doseQuantity>
            <value value="1"/>
            <unit value="{tablet}"/>
            <system value="http://unitsofmeasure.org"/>
            <code value="{tablet}"/>
          </doseQuantity>
          <text value="1 bid"/>
        </dosageInstruction>
        <dispenseRequest>
          <numberOfRepeatsAllowed value="1"/>
          <quantity>
            <value value="60"/>
            <unit value="{tablet}"/>
            <system value="http://unitsofmeasure.org"/>
            <code value="{tablet}"/>
          </quantity>
          <expectedSupplyDuration>
            <value value="30"/>
            <unit value="days"/>
            <system value="http://unitsofmeasure.org"/>
            <code value="d"/>
          </expectedSupplyDuration>
        </dispenseRequest>
      </MedicationOrder>
    </resource>
    <request>
      <method value="PUT"/>
      <url value="MedicationOrder/smart-MedicationOrder-53"/>
    </request>
  </entry>
  <entry>
    <resource>
      <MedicationDispense>
        <meta>
          <tag>
            <system value="https://smarthealthit.org/tags"/>
            <code value="smart-8-2017"/>
          </tag>
        </meta>
        <id value="smart-MedicationDispense-547"/>
        <text>
          <status value="generated"/>
          <div xmlns="http://www.w3.org/1999/xhtml">
            Dispensed 60 tablets = 30 day supply of Metoprolol 50 MG Oral Tablet
          </div>
        </text>
        <status value="completed"/>
        <patient>
          <reference value="Patient/smart-767980"/>
        </patient>
        <authorizingPrescription>
          <reference value="MedicationOrder/smart-MedicationOrder-53"/>
        </authorizingPrescription>
        <quantity>
          <value value="60"/>
          <unit value="tablets"/>
          <system value="http://unitsofmeasure.org"/>
          <code value="{tablets}"/>
        </quantity>
        <daysSupply>
          <value value="30"/>
          <unit value="days"/>
          <system value="http://unitsofmeasure.org"/>
          <code value="d"/>
        </daysSupply>
        <medicationCodeableConcept>
          <coding>
            <system value="http://www.nlm.nih.gov/research/umls/rxnorm"/>
            <code value="866514"/>
            <display value="Metoprolol 50 MG Oral Tablet"/>
          </coding>
          <text value="Metoprolol 50 MG Oral Tablet"/>
        </medicationCodeableConcept>
        <whenHandedOver value="2008-06-22"/>
      </MedicationDispense>
    </resource>
    <request>
      <method value="PUT"/>
      <url value="MedicationDispense/smart-MedicationDispense-547"/>
    </request>
  </entry>
  <entry>
    <resource>
      <MedicationOrder>
        <meta>
          <tag>
            <system value="https://smarthealthit.org/tags"/>
            <code value="smart-8-2017"/>
          </tag>
        </meta>
        <id value="smart-MedicationOrder-54"/>
        <text>
          <status value="generated"/>
          <div xmlns="http://www.w3.org/1999/xhtml">
            Guaifenesin 600 MG / Phenylephrine 30 MG Extended Release Tablet [Crantex LA] (rxnorm: 283342)
          </div>
        </text>
        <status value="active"/>
        <patient>
          <reference value="Patient/smart-767980"/>
        </patient>
        <medicationCodeableConcept>
          <coding>
            <system value="http://www.nlm.nih.gov/research/umls/rxnorm"/>
            <code value="283342"/>
            <display value="Guaifenesin 600 MG / Phenylephrine 30 MG Extended Release Tablet [Crantex LA]"/>
          </coding>
          <text value="Guaifenesin 600 MG / Phenylephrine 30 MG Extended Release Tablet [Crantex LA]"/>
        </medicationCodeableConcept>
        <dosageInstruction>
          <timing>
            <repeat>
              <boundsPeriod>
                <start value="2004-12-10"/>
              </boundsPeriod>
              <frequency value="2"/>
              <period value="1"/>
              <periodUnits value="d"/>
            </repeat>
          </timing>
          <doseQuantity>
            <value value="1"/>
            <unit value="{tablet}"/>
            <system value="http://unitsofmeasure.org"/>
            <code value="{tablet}"/>
          </doseQuantity>
          <text value="1 bid"/>
        </dosageInstruction>
        <dispenseRequest>
          <numberOfRepeatsAllowed value="1"/>
          <quantity>
            <value value="20"/>
            <unit value="{tablet}"/>
            <system value="http://unitsofmeasure.org"/>
            <code value="{tablet}"/>
          </quantity>
          <expectedSupplyDuration>
            <value value="10"/>
            <unit value="days"/>
            <system value="http://unitsofmeasure.org"/>
            <code value="d"/>
          </expectedSupplyDuration>
        </dispenseRequest>
      </MedicationOrder>
    </resource>
    <request>
      <method value="PUT"/>
      <url value="MedicationOrder/smart-MedicationOrder-54"/>
    </request>
  </entry>
  <entry>
    <resource>
      <MedicationDispense>
        <meta>
          <tag>
            <system value="https://smarthealthit.org/tags"/>
            <code value="smart-8-2017"/>
          </tag>
        </meta>
        <id value="smart-MedicationDispense-540"/>
        <text>
          <status value="generated"/>
          <div xmlns="http://www.w3.org/1999/xhtml">
            Dispensed 20 tablets = 10 day supply of Guaifenesin 600 MG / Phenylephrine 30 MG Extended Release Tablet [Crantex LA]
          </div>
        </text>
        <status value="completed"/>
        <patient>
          <reference value="Patient/smart-767980"/>
        </patient>
        <authorizingPrescription>
          <reference value="MedicationOrder/smart-MedicationOrder-54"/>
        </authorizingPrescription>
        <quantity>
          <value value="20"/>
          <unit value="tablets"/>
          <system value="http://unitsofmeasure.org"/>
          <code value="{tablets}"/>
        </quantity>
        <daysSupply>
          <value value="10"/>
          <unit value="days"/>
          <system value="http://unitsofmeasure.org"/>
          <code value="d"/>
        </daysSupply>
        <medicationCodeableConcept>
          <coding>
            <system value="http://www.nlm.nih.gov/research/umls/rxnorm"/>
            <code value="283342"/>
            <display value="Guaifenesin 600 MG / Phenylephrine 30 MG Extended Release Tablet [Crantex LA]"/>
          </coding>
          <text value="Guaifenesin 600 MG / Phenylephrine 30 MG Extended Release Tablet [Crantex LA]"/>
        </medicationCodeableConcept>
        <whenHandedOver value="2008-08-03"/>
      </MedicationDispense>
    </resource>
    <request>
      <method value="PUT"/>
      <url value="MedicationDispense/smart-MedicationDispense-540"/>
    </request>
  </entry>
  <entry>
    <resource>
      <MedicationOrder>
        <meta>
          <tag>
            <system value="https://smarthealthit.org/tags"/>
            <code value="smart-8-2017"/>
          </tag>
        </meta>
        <id value="smart-MedicationOrder-55"/>
        <text>
          <status value="generated"/>
          <div xmlns="http://www.w3.org/1999/xhtml">
            Metformin 500 MG Oral Tablet (rxnorm: 861007)
          </div>
        </text>
        <status value="active"/>
        <patient>
          <reference value="Patient/smart-767980"/>
        </patient>
        <medicationCodeableConcept>
          <coding>
            <system value="http://www.nlm.nih.gov/research/umls/rxnorm"/>
            <code value="861007"/>
            <display value="Metformin 500 MG Oral Tablet"/>
          </coding>
          <text value="Metformin 500 MG Oral Tablet"/>
        </medicationCodeableConcept>
        <dosageInstruction>
          <timing>
            <repeat>
              <boundsPeriod>
                <start value="2004-12-10"/>
              </boundsPeriod>
              <frequency value="2"/>
              <period value="1"/>
              <periodUnits value="d"/>
            </repeat>
          </timing>
          <doseQuantity>
            <value value="1"/>
            <unit value="{tablet}"/>
            <system value="http://unitsofmeasure.org"/>
            <code value="{tablet}"/>
          </doseQuantity>
          <text value="1 bid"/>
        </dosageInstruction>
        <dispenseRequest>
          <numberOfRepeatsAllowed value="1"/>
          <quantity>
            <value value="60"/>
            <unit value="{tablet}"/>
            <system value="http://unitsofmeasure.org"/>
            <code value="{tablet}"/>
          </quantity>
          <expectedSupplyDuration>
            <value value="30"/>
            <unit value="days"/>
            <system value="http://unitsofmeasure.org"/>
            <code value="d"/>
          </expectedSupplyDuration>
        </dispenseRequest>
      </MedicationOrder>
    </resource>
    <request>
      <method value="PUT"/>
      <url value="MedicationOrder/smart-MedicationOrder-55"/>
    </request>
  </entry>
  <entry>
    <resource>
      <MedicationDispense>
        <meta>
          <tag>
            <system value="https://smarthealthit.org/tags"/>
            <code value="smart-8-2017"/>
          </tag>
        </meta>
        <id value="smart-MedicationDispense-551"/>
        <text>
          <status value="generated"/>
          <div xmlns="http://www.w3.org/1999/xhtml">
            Dispensed 60 tablets = 30 day supply of Metformin 500 MG Oral Tablet
          </div>
        </text>
        <status value="completed"/>
        <patient>
          <reference value="Patient/smart-767980"/>
        </patient>
        <authorizingPrescription>
          <reference value="MedicationOrder/smart-MedicationOrder-55"/>
        </authorizingPrescription>
        <quantity>
          <value value="60"/>
          <unit value="tablets"/>
          <system value="http://unitsofmeasure.org"/>
          <code value="{tablets}"/>
        </quantity>
        <daysSupply>
          <value value="30"/>
          <unit value="days"/>
          <system value="http://unitsofmeasure.org"/>
          <code value="d"/>
        </daysSupply>
        <medicationCodeableConcept>
          <coding>
            <system value="http://www.nlm.nih.gov/research/umls/rxnorm"/>
            <code value="861007"/>
            <display value="Metformin 500 MG Oral Tablet"/>
          </coding>
          <text value="Metformin 500 MG Oral Tablet"/>
        </medicationCodeableConcept>
        <whenHandedOver value="2008-08-29"/>
      </MedicationDispense>
    </resource>
    <request>
      <method value="PUT"/>
      <url value="MedicationDispense/smart-MedicationDispense-551"/>
    </request>
  </entry>
  <entry>
    <resource>
      <MedicationDispense>
        <meta>
          <tag>
            <system value="https://smarthealthit.org/tags"/>
            <code value="smart-8-2017"/>
          </tag>
        </meta>
        <id value="smart-MedicationDispense-550"/>
        <text>
          <status value="generated"/>
          <div xmlns="http://www.w3.org/1999/xhtml">
            Dispensed 60 tablets = 30 day supply of Metformin 500 MG Oral Tablet
          </div>
        </text>
        <status value="completed"/>
        <patient>
          <reference value="Patient/smart-767980"/>
        </patient>
        <authorizingPrescription>
          <reference value="MedicationOrder/smart-MedicationOrder-55"/>
        </authorizingPrescription>
        <quantity>
          <value value="60"/>
          <unit value="tablets"/>
          <system value="http://unitsofmeasure.org"/>
          <code value="{tablets}"/>
        </quantity>
        <daysSupply>
          <value value="30"/>
          <unit value="days"/>
          <system value="http://unitsofmeasure.org"/>
          <code value="d"/>
        </daysSupply>
        <medicationCodeableConcept>
          <coding>
            <system value="http://www.nlm.nih.gov/research/umls/rxnorm"/>
            <code value="861007"/>
            <display value="Metformin 500 MG Oral Tablet"/>
          </coding>
          <text value="Metformin 500 MG Oral Tablet"/>
        </medicationCodeableConcept>
        <whenHandedOver value="2008-08-25"/>
      </MedicationDispense>
    </resource>
    <request>
      <method value="PUT"/>
      <url value="MedicationDispense/smart-MedicationDispense-550"/>
    </request>
  </entry>
  <entry>
    <resource>
      <MedicationDispense>
        <meta>
          <tag>
            <system value="https://smarthealthit.org/tags"/>
            <code value="smart-8-2017"/>
          </tag>
        </meta>
        <id value="smart-MedicationDispense-549"/>
        <text>
          <status value="generated"/>
          <div xmlns="http://www.w3.org/1999/xhtml">
            Dispensed 60 tablets = 30 day supply of Metformin 500 MG Oral Tablet
          </div>
        </text>
        <status value="completed"/>
        <patient>
          <reference value="Patient/smart-767980"/>
        </patient>
        <authorizingPrescription>
          <reference value="MedicationOrder/smart-MedicationOrder-55"/>
        </authorizingPrescription>
        <quantity>
          <value value="60"/>
          <unit value="tablets"/>
          <system value="http://unitsofmeasure.org"/>
          <code value="{tablets}"/>
        </quantity>
        <daysSupply>
          <value value="30"/>
          <unit value="days"/>
          <system value="http://unitsofmeasure.org"/>
          <code value="d"/>
        </daysSupply>
        <medicationCodeableConcept>
          <coding>
            <system value="http://www.nlm.nih.gov/research/umls/rxnorm"/>
            <code value="861007"/>
            <display value="Metformin 500 MG Oral Tablet"/>
          </coding>
          <text value="Metformin 500 MG Oral Tablet"/>
        </medicationCodeableConcept>
        <whenHandedOver value="2008-08-03"/>
      </MedicationDispense>
    </resource>
    <request>
      <method value="PUT"/>
      <url value="MedicationDispense/smart-MedicationDispense-549"/>
    </request>
  </entry>
  <entry>
    <resource>
      <MedicationOrder>
        <meta>
          <tag>
            <system value="https://smarthealthit.org/tags"/>
            <code value="smart-8-2017"/>
          </tag>
        </meta>
        <id value="smart-MedicationOrder-56"/>
        <text>
          <status value="generated"/>
          <div xmlns="http://www.w3.org/1999/xhtml">
            Codeine 2 MG/ML / Guaifenesin 20 MG/ML Oral Solution (rxnorm: 309428)
          </div>
        </text>
        <status value="active"/>
        <patient>
          <reference value="Patient/smart-767980"/>
        </patient>
        <medicationCodeableConcept>
          <coding>
            <system value="http://www.nlm.nih.gov/research/umls/rxnorm"/>
            <code value="309428"/>
            <display value="Codeine 2 MG/ML / Guaifenesin 20 MG/ML Oral Solution"/>
          </coding>
          <text value="Codeine 2 MG/ML / Guaifenesin 20 MG/ML Oral Solution"/>
        </medicationCodeableConcept>
        <dosageInstruction>
          <timing>
            <repeat>
              <boundsPeriod>
                <start value="2004-12-24"/>
              </boundsPeriod>
              <frequency value="4"/>
              <period value="1"/>
              <periodUnits value="d"/>
            </repeat>
          </timing>
          <doseQuantity>
            <value value="5"/>
            <unit value="mL"/>
            <system value="http://unitsofmeasure.org"/>
            <code value="mL"/>
          </doseQuantity>
          <asNeededBoolean value="true"/>
          <text value="5 mL q6h prn cough"/>
        </dosageInstruction>
        <dispenseRequest>
          <numberOfRepeatsAllowed value="1"/>
          <quantity>
            <value value="1"/>
            <unit value="mL"/>
            <system value="http://unitsofmeasure.org"/>
            <code value="mL"/>
          </quantity>
          <expectedSupplyDuration>
            <value value="6"/>
            <unit value="days"/>
            <system value="http://unitsofmeasure.org"/>
            <code value="d"/>
          </expectedSupplyDuration>
        </dispenseRequest>
      </MedicationOrder>
    </resource>
    <request>
      <method value="PUT"/>
      <url value="MedicationOrder/smart-MedicationOrder-56"/>
    </request>
  </entry>
  <entry>
    <resource>
      <MedicationOrder>
        <meta>
          <tag>
            <system value="https://smarthealthit.org/tags"/>
            <code value="smart-8-2017"/>
          </tag>
        </meta>
        <id value="smart-MedicationOrder-57"/>
        <text>
          <status value="generated"/>
          <div xmlns="http://www.w3.org/1999/xhtml">
            24 HR Glipizide 2.5 MG Extended Release Tablet (rxnorm: 310489)
          </div>
        </text>
        <status value="active"/>
        <patient>
          <reference value="Patient/smart-767980"/>
        </patient>
        <medicationCodeableConcept>
          <coding>
            <system value="http://www.nlm.nih.gov/research/umls/rxnorm"/>
            <code value="310489"/>
            <display value="24 HR Glipizide 2.5 MG Extended Release Tablet"/>
          </coding>
          <text value="24 HR Glipizide 2.5 MG Extended Release Tablet"/>
        </medicationCodeableConcept>
        <dosageInstruction>
          <timing>
            <repeat>
              <boundsPeriod>
                <start value="2005-12-17"/>
              </boundsPeriod>
              <frequency value="1"/>
              <period value="1"/>
              <periodUnits value="d"/>
            </repeat>
          </timing>
          <doseQuantity>
            <value value="1"/>
            <unit value="{tablet}"/>
            <system value="http://unitsofmeasure.org"/>
            <code value="{tablet}"/>
          </doseQuantity>
          <text value="1 daily"/>
        </dosageInstruction>
        <dispenseRequest>
          <numberOfRepeatsAllowed value="1"/>
          <quantity>
            <value value="30"/>
            <unit value="{tablet}"/>
            <system value="http://unitsofmeasure.org"/>
            <code value="{tablet}"/>
          </quantity>
          <expectedSupplyDuration>
            <value value="30"/>
            <unit value="days"/>
            <system value="http://unitsofmeasure.org"/>
            <code value="d"/>
          </expectedSupplyDuration>
        </dispenseRequest>
      </MedicationOrder>
    </resource>
    <request>
      <method value="PUT"/>
      <url value="MedicationOrder/smart-MedicationOrder-57"/>
    </request>
  </entry>
  <entry>
    <resource>
      <MedicationDispense>
        <meta>
          <tag>
            <system value="https://smarthealthit.org/tags"/>
            <code value="smart-8-2017"/>
          </tag>
        </meta>
        <id value="smart-MedicationDispense-542"/>
        <text>
          <status value="generated"/>
          <div xmlns="http://www.w3.org/1999/xhtml">
            Dispensed 30 tablets = 30 day supply of 24 HR Glipizide 2.5 MG Extended Release Tablet
          </div>
        </text>
        <status value="completed"/>
        <patient>
          <reference value="Patient/smart-767980"/>
        </patient>
        <authorizingPrescription>
          <reference value="MedicationOrder/smart-MedicationOrder-57"/>
        </authorizingPrescription>
        <quantity>
          <value value="30"/>
          <unit value="tablets"/>
          <system value="http://unitsofmeasure.org"/>
          <code value="{tablets}"/>
        </quantity>
        <daysSupply>
          <value value="30"/>
          <unit value="days"/>
          <system value="http://unitsofmeasure.org"/>
          <code value="d"/>
        </daysSupply>
        <medicationCodeableConcept>
          <coding>
            <system value="http://www.nlm.nih.gov/research/umls/rxnorm"/>
            <code value="310489"/>
            <display value="24 HR Glipizide 2.5 MG Extended Release Tablet"/>
          </coding>
          <text value="24 HR Glipizide 2.5 MG Extended Release Tablet"/>
        </medicationCodeableConcept>
        <whenHandedOver value="2009-08-10"/>
      </MedicationDispense>
    </resource>
    <request>
      <method value="PUT"/>
      <url value="MedicationDispense/smart-MedicationDispense-542"/>
    </request>
  </entry>
  <entry>
    <resource>
      <MedicationOrder>
        <meta>
          <tag>
            <system value="https://smarthealthit.org/tags"/>
            <code value="smart-8-2017"/>
          </tag>
        </meta>
        <id value="smart-MedicationOrder-58"/>
        <text>
          <status value="generated"/>
          <div xmlns="http://www.w3.org/1999/xhtml">
            ezetimibe 10 MG / Simvastatin 40 MG Oral Tablet [Vytorin] (rxnorm: 543354)
          </div>
        </text>
        <status value="active"/>
        <patient>
          <reference value="Patient/smart-767980"/>
        </patient>
        <medicationCodeableConcept>
          <coding>
            <system value="http://www.nlm.nih.gov/research/umls/rxnorm"/>
            <code value="543354"/>
            <display value="ezetimibe 10 MG / Simvastatin 40 MG Oral Tablet [Vytorin]"/>
          </coding>
          <text value="ezetimibe 10 MG / Simvastatin 40 MG Oral Tablet [Vytorin]"/>
        </medicationCodeableConcept>
        <dosageInstruction>
          <timing>
            <repeat>
              <boundsPeriod>
                <start value="2005-12-17"/>
              </boundsPeriod>
              <frequency value="1"/>
              <period value="1"/>
              <periodUnits value="d"/>
            </repeat>
          </timing>
          <doseQuantity>
            <value value="1"/>
            <unit value="{tablet}"/>
            <system value="http://unitsofmeasure.org"/>
            <code value="{tablet}"/>
          </doseQuantity>
          <text value="1 qhs"/>
        </dosageInstruction>
        <dispenseRequest>
          <numberOfRepeatsAllowed value="1"/>
          <quantity>
            <value value="30"/>
            <unit value="{tablet}"/>
            <system value="http://unitsofmeasure.org"/>
            <code value="{tablet}"/>
          </quantity>
          <expectedSupplyDuration>
            <value value="30"/>
            <unit value="days"/>
            <system value="http://unitsofmeasure.org"/>
            <code value="d"/>
          </expectedSupplyDuration>
        </dispenseRequest>
      </MedicationOrder>
    </resource>
    <request>
      <method value="PUT"/>
      <url value="MedicationOrder/smart-MedicationOrder-58"/>
    </request>
  </entry>
  <entry>
    <resource>
      <MedicationDispense>
        <meta>
          <tag>
            <system value="https://smarthealthit.org/tags"/>
            <code value="smart-8-2017"/>
          </tag>
        </meta>
        <id value="smart-MedicationDispense-554"/>
        <text>
          <status value="generated"/>
          <div xmlns="http://www.w3.org/1999/xhtml">
            Dispensed 30 tablets = 30 day supply of ezetimibe 10 MG / Simvastatin 40 MG Oral Tablet [Vytorin]
          </div>
        </text>
        <status value="completed"/>
        <patient>
          <reference value="Patient/smart-767980"/>
        </patient>
        <authorizingPrescription>
          <reference value="MedicationOrder/smart-MedicationOrder-58"/>
        </authorizingPrescription>
        <quantity>
          <value value="30"/>
          <unit value="tablets"/>
          <system value="http://unitsofmeasure.org"/>
          <code value="{tablets}"/>
        </quantity>
        <daysSupply>
          <value value="30"/>
          <unit value="days"/>
          <system value="http://unitsofmeasure.org"/>
          <code value="d"/>
        </daysSupply>
        <medicationCodeableConcept>
          <coding>
            <system value="http://www.nlm.nih.gov/research/umls/rxnorm"/>
            <code value="543354"/>
            <display value="ezetimibe 10 MG / Simvastatin 40 MG Oral Tablet [Vytorin]"/>
          </coding>
          <text value="ezetimibe 10 MG / Simvastatin 40 MG Oral Tablet [Vytorin]"/>
        </medicationCodeableConcept>
        <whenHandedOver value="2009-08-10"/>
      </MedicationDispense>
    </resource>
    <request>
      <method value="PUT"/>
      <url value="MedicationDispense/smart-MedicationDispense-554"/>
    </request>
  </entry>
  <entry>
    <resource>
      <MedicationOrder>
        <meta>
          <tag>
            <system value="https://smarthealthit.org/tags"/>
            <code value="smart-8-2017"/>
          </tag>
        </meta>
        <id value="smart-MedicationOrder-59"/>
        <text>
          <status value="generated"/>
          <div xmlns="http://www.w3.org/1999/xhtml">
            ezetimibe 10 MG Oral Tablet [Zetia] (rxnorm: 352304)
          </div>
        </text>
        <status value="active"/>
        <patient>
          <reference value="Patient/smart-767980"/>
        </patient>
        <medicationCodeableConcept>
          <coding>
            <system value="http://www.nlm.nih.gov/research/umls/rxnorm"/>
            <code value="352304"/>
            <display value="ezetimibe 10 MG Oral Tablet [Zetia]"/>
          </coding>
          <text value="ezetimibe 10 MG Oral Tablet [Zetia]"/>
        </medicationCodeableConcept>
        <dosageInstruction>
          <timing>
            <repeat>
              <boundsPeriod>
                <start value="2006-01-06"/>
              </boundsPeriod>
              <frequency value="1"/>
              <period value="1"/>
              <periodUnits value="d"/>
            </repeat>
          </timing>
          <doseQuantity>
            <value value="1"/>
            <unit value="{tablet}"/>
            <system value="http://unitsofmeasure.org"/>
            <code value="{tablet}"/>
          </doseQuantity>
          <text value="1 daily"/>
        </dosageInstruction>
        <dispenseRequest>
          <numberOfRepeatsAllowed value="1"/>
          <quantity>
            <value value="30"/>
            <unit value="{tablet}"/>
            <system value="http://unitsofmeasure.org"/>
            <code value="{tablet}"/>
          </quantity>
          <expectedSupplyDuration>
            <value value="30"/>
            <unit value="days"/>
            <system value="http://unitsofmeasure.org"/>
            <code value="d"/>
          </expectedSupplyDuration>
        </dispenseRequest>
      </MedicationOrder>
    </resource>
    <request>
      <method value="PUT"/>
      <url value="MedicationOrder/smart-MedicationOrder-59"/>
    </request>
  </entry>
  <entry>
    <resource>
      <MedicationDispense>
        <meta>
          <tag>
            <system value="https://smarthealthit.org/tags"/>
            <code value="smart-8-2017"/>
          </tag>
        </meta>
        <id value="smart-MedicationDispense-553"/>
        <text>
          <status value="generated"/>
          <div xmlns="http://www.w3.org/1999/xhtml">
            Dispensed 30 tablets = 30 day supply of ezetimibe 10 MG Oral Tablet [Zetia]
          </div>
        </text>
        <status value="completed"/>
        <patient>
          <reference value="Patient/smart-767980"/>
        </patient>
        <authorizingPrescription>
          <reference value="MedicationOrder/smart-MedicationOrder-59"/>
        </authorizingPrescription>
        <quantity>
          <value value="30"/>
          <unit value="tablets"/>
          <system value="http://unitsofmeasure.org"/>
          <code value="{tablets}"/>
        </quantity>
        <daysSupply>
          <value value="30"/>
          <unit value="days"/>
          <system value="http://unitsofmeasure.org"/>
          <code value="d"/>
        </daysSupply>
        <medicationCodeableConcept>
          <coding>
            <system value="http://www.nlm.nih.gov/research/umls/rxnorm"/>
            <code value="352304"/>
            <display value="ezetimibe 10 MG Oral Tablet [Zetia]"/>
          </coding>
          <text value="ezetimibe 10 MG Oral Tablet [Zetia]"/>
        </medicationCodeableConcept>
        <whenHandedOver value="2009-09-02"/>
      </MedicationDispense>
    </resource>
    <request>
      <method value="PUT"/>
      <url value="MedicationDispense/smart-MedicationDispense-553"/>
    </request>
  </entry>
  <entry>
    <resource>
      <MedicationDispense>
        <meta>
          <tag>
            <system value="https://smarthealthit.org/tags"/>
            <code value="smart-8-2017"/>
          </tag>
        </meta>
        <id value="smart-MedicationDispense-552"/>
        <text>
          <status value="generated"/>
          <div xmlns="http://www.w3.org/1999/xhtml">
            Dispensed 30 tablets = 30 day supply of ezetimibe 10 MG Oral Tablet [Zetia]
          </div>
        </text>
        <status value="completed"/>
        <patient>
          <reference value="Patient/smart-767980"/>
        </patient>
        <authorizingPrescription>
          <reference value="MedicationOrder/smart-MedicationOrder-59"/>
        </authorizingPrescription>
        <quantity>
          <value value="30"/>
          <unit value="tablets"/>
          <system value="http://unitsofmeasure.org"/>
          <code value="{tablets}"/>
        </quantity>
        <daysSupply>
          <value value="30"/>
          <unit value="days"/>
          <system value="http://unitsofmeasure.org"/>
          <code value="d"/>
        </daysSupply>
        <medicationCodeableConcept>
          <coding>
            <system value="http://www.nlm.nih.gov/research/umls/rxnorm"/>
            <code value="352304"/>
            <display value="ezetimibe 10 MG Oral Tablet [Zetia]"/>
          </coding>
          <text value="ezetimibe 10 MG Oral Tablet [Zetia]"/>
        </medicationCodeableConcept>
        <whenHandedOver value="2009-08-30"/>
      </MedicationDispense>
    </resource>
    <request>
      <method value="PUT"/>
      <url value="MedicationDispense/smart-MedicationDispense-552"/>
    </request>
  </entry>
  <entry>
    <resource>
      <MedicationOrder>
        <meta>
          <tag>
            <system value="https://smarthealthit.org/tags"/>
            <code value="smart-8-2017"/>
          </tag>
        </meta>
        <id value="smart-MedicationOrder-60"/>
        <text>
          <status value="generated"/>
          <div xmlns="http://www.w3.org/1999/xhtml">
            rosuvastatin 10 MG Oral Tablet [Crestor] (rxnorm: 859749)
          </div>
        </text>
        <status value="active"/>
        <patient>
          <reference value="Patient/smart-767980"/>
        </patient>
        <medicationCodeableConcept>
          <coding>
            <system value="http://www.nlm.nih.gov/research/umls/rxnorm"/>
            <code value="859749"/>
            <display value="rosuvastatin 10 MG Oral Tablet [Crestor]"/>
          </coding>
          <text value="rosuvastatin 10 MG Oral Tablet [Crestor]"/>
        </medicationCodeableConcept>
        <dosageInstruction>
          <timing>
            <repeat>
              <boundsPeriod>
                <start value="2006-01-06"/>
              </boundsPeriod>
              <frequency value="1"/>
              <period value="1"/>
              <periodUnits value="d"/>
            </repeat>
          </timing>
          <doseQuantity>
            <value value="1"/>
            <unit value="{tablet}"/>
            <system value="http://unitsofmeasure.org"/>
            <code value="{tablet}"/>
          </doseQuantity>
          <text value="1 qhs"/>
        </dosageInstruction>
        <dispenseRequest>
          <numberOfRepeatsAllowed value="1"/>
          <quantity>
            <value value="30"/>
            <unit value="{tablet}"/>
            <system value="http://unitsofmeasure.org"/>
            <code value="{tablet}"/>
          </quantity>
          <expectedSupplyDuration>
            <value value="30"/>
            <unit value="days"/>
            <system value="http://unitsofmeasure.org"/>
            <code value="d"/>
          </expectedSupplyDuration>
        </dispenseRequest>
      </MedicationOrder>
    </resource>
    <request>
      <method value="PUT"/>
      <url value="MedicationOrder/smart-MedicationOrder-60"/>
    </request>
  </entry>
  <entry>
    <resource>
      <MedicationDispense>
        <meta>
          <tag>
            <system value="https://smarthealthit.org/tags"/>
            <code value="smart-8-2017"/>
          </tag>
        </meta>
        <id value="smart-MedicationDispense-548"/>
        <text>
          <status value="generated"/>
          <div xmlns="http://www.w3.org/1999/xhtml">
            Dispensed 30 tablets = 30 day supply of rosuvastatin 10 MG Oral Tablet [Crestor]
          </div>
        </text>
        <status value="completed"/>
        <patient>
          <reference value="Patient/smart-767980"/>
        </patient>
        <authorizingPrescription>
          <reference value="MedicationOrder/smart-MedicationOrder-60"/>
        </authorizingPrescription>
        <quantity>
          <value value="30"/>
          <unit value="tablets"/>
          <system value="http://unitsofmeasure.org"/>
          <code value="{tablets}"/>
        </quantity>
        <daysSupply>
          <value value="30"/>
          <unit value="days"/>
          <system value="http://unitsofmeasure.org"/>
          <code value="d"/>
        </daysSupply>
        <medicationCodeableConcept>
          <coding>
            <system value="http://www.nlm.nih.gov/research/umls/rxnorm"/>
            <code value="859749"/>
            <display value="rosuvastatin 10 MG Oral Tablet [Crestor]"/>
          </coding>
          <text value="rosuvastatin 10 MG Oral Tablet [Crestor]"/>
        </medicationCodeableConcept>
        <whenHandedOver value="2009-08-30"/>
      </MedicationDispense>
    </resource>
    <request>
      <method value="PUT"/>
      <url value="MedicationDispense/smart-MedicationDispense-548"/>
    </request>
  </entry>
  <entry>
    <resource>
      <MedicationOrder>
        <meta>
          <tag>
            <system value="https://smarthealthit.org/tags"/>
            <code value="smart-8-2017"/>
          </tag>
        </meta>
        <id value="smart-MedicationOrder-61"/>
        <text>
          <status value="generated"/>
          <div xmlns="http://www.w3.org/1999/xhtml">
            Acetaminophen 650 MG / propoxyphene napsylate 100 MG Oral Tablet (rxnorm: 828576)
          </div>
        </text>
        <status value="active"/>
        <patient>
          <reference value="Patient/smart-767980"/>
        </patient>
        <medicationCodeableConcept>
          <coding>
            <system value="http://www.nlm.nih.gov/research/umls/rxnorm"/>
            <code value="828576"/>
            <display value="Acetaminophen 650 MG / propoxyphene napsylate 100 MG Oral Tablet"/>
          </coding>
          <text value="Acetaminophen 650 MG / propoxyphene napsylate 100 MG Oral Tablet"/>
        </medicationCodeableConcept>
        <dosageInstruction>
          <timing>
            <repeat>
              <boundsPeriod>
                <start value="2009-08-14"/>
              </boundsPeriod>
              <frequency value="4"/>
              <period value="1"/>
              <periodUnits value="d"/>
            </repeat>
          </timing>
          <doseQuantity>
            <value value="1"/>
            <unit value="{tablet}"/>
            <system value="http://unitsofmeasure.org"/>
            <code value="{tablet}"/>
          </doseQuantity>
          <asNeededBoolean value="true"/>
          <text value="1 q6h prn pain"/>
        </dosageInstruction>
        <dispenseRequest>
          <numberOfRepeatsAllowed value="1"/>
          <quantity>
            <value value="20"/>
            <unit value="{tablet}"/>
            <system value="http://unitsofmeasure.org"/>
            <code value="{tablet}"/>
          </quantity>
          <expectedSupplyDuration>
            <value value="4"/>
            <unit value="days"/>
            <system value="http://unitsofmeasure.org"/>
            <code value="d"/>
          </expectedSupplyDuration>
        </dispenseRequest>
      </MedicationOrder>
    </resource>
    <request>
      <method value="PUT"/>
      <url value="MedicationOrder/smart-MedicationOrder-61"/>
    </request>
  </entry>
  <entry>
    <resource>
      <MedicationDispense>
        <meta>
          <tag>
            <system value="https://smarthealthit.org/tags"/>
            <code value="smart-8-2017"/>
          </tag>
        </meta>
        <id value="smart-MedicationDispense-541"/>
        <text>
          <status value="generated"/>
          <div xmlns="http://www.w3.org/1999/xhtml">
            Dispensed 20 tablets = 4 day supply of Acetaminophen 650 MG / propoxyphene napsylate 100 MG Oral Tablet
          </div>
        </text>
        <status value="completed"/>
        <patient>
          <reference value="Patient/smart-767980"/>
        </patient>
        <authorizingPrescription>
          <reference value="MedicationOrder/smart-MedicationOrder-61"/>
        </authorizingPrescription>
        <quantity>
          <value value="20"/>
          <unit value="tablets"/>
          <system value="http://unitsofmeasure.org"/>
          <code value="{tablets}"/>
        </quantity>
        <daysSupply>
          <value value="4"/>
          <unit value="days"/>
          <system value="http://unitsofmeasure.org"/>
          <code value="d"/>
        </daysSupply>
        <medicationCodeableConcept>
          <coding>
            <system value="http://www.nlm.nih.gov/research/umls/rxnorm"/>
            <code value="828576"/>
            <display value="Acetaminophen 650 MG / propoxyphene napsylate 100 MG Oral Tablet"/>
          </coding>
          <text value="Acetaminophen 650 MG / propoxyphene napsylate 100 MG Oral Tablet"/>
        </medicationCodeableConcept>
        <whenHandedOver value="2013-04-07"/>
      </MedicationDispense>
    </resource>
    <request>
      <method value="PUT"/>
      <url value="MedicationDispense/smart-MedicationDispense-541"/>
    </request>
  </entry>
  <entry>
    <resource>
      <Condition>
        <meta>
          <tag>
            <system value="https://smarthealthit.org/tags"/>
            <code value="smart-8-2017"/>
          </tag>
        </meta>
        <id value="smart-Condition-247"/>
        <text>
          <status value="generated"/>
          <div xmlns="http://www.w3.org/1999/xhtml">
            Chest pain
          </div>
        </text>
        <patient>
          <reference value="Patient/smart-767980"/>
        </patient>
        <code>
          <coding>
            <system value="http://snomed.info/sct"/>
            <code value="29857009"/>
            <display value="Chest pain"/>
          </coding>
          <text value="Chest pain"/>
        </code>
        <clinicalStatus value="active"/>
        <verificationStatus value="confirmed"/>
        <onsetDateTime value="2008-04-05"/>
      </Condition>
    </resource>
    <request>
      <method value="PUT"/>
      <url value="Condition/smart-Condition-247"/>
    </request>
  </entry>
  <entry>
    <resource>
      <Condition>
        <meta>
          <tag>
            <system value="https://smarthealthit.org/tags"/>
            <code value="smart-8-2017"/>
          </tag>
        </meta>
        <id value="smart-Condition-248"/>
        <text>
          <status value="generated"/>
          <div xmlns="http://www.w3.org/1999/xhtml">
            Essential hypertension
          </div>
        </text>
        <patient>
          <reference value="Patient/smart-767980"/>
        </patient>
        <code>
          <coding>
            <system value="http://snomed.info/sct"/>
            <code value="38341003"/>
            <display value="Essential hypertension"/>
          </coding>
          <text value="Essential hypertension"/>
        </code>
        <clinicalStatus value="active"/>
        <verificationStatus value="confirmed"/>
        <onsetDateTime value="2008-04-05"/>
      </Condition>
    </resource>
    <request>
      <method value="PUT"/>
      <url value="Condition/smart-Condition-248"/>
    </request>
  </entry>
  <entry>
    <resource>
      <Condition>
        <meta>
          <tag>
            <system value="https://smarthealthit.org/tags"/>
            <code value="smart-8-2017"/>
          </tag>
        </meta>
        <id value="smart-Condition-249"/>
        <text>
          <status value="generated"/>
          <div xmlns="http://www.w3.org/1999/xhtml">
            H/O: peptic ulcer
          </div>
        </text>
        <patient>
          <reference value="Patient/smart-767980"/>
        </patient>
        <code>
          <coding>
            <system value="http://snomed.info/sct"/>
            <code value="266998003"/>
            <display value="H/O: peptic ulcer"/>
          </coding>
          <text value="H/O: peptic ulcer"/>
        </code>
        <clinicalStatus value="active"/>
        <verificationStatus value="confirmed"/>
        <onsetDateTime value="2008-04-05"/>
      </Condition>
    </resource>
    <request>
      <method value="PUT"/>
      <url value="Condition/smart-Condition-249"/>
    </request>
  </entry>
  <entry>
    <resource>
      <Condition>
        <meta>
          <tag>
            <system value="https://smarthealthit.org/tags"/>
            <code value="smart-8-2017"/>
          </tag>
        </meta>
        <id value="smart-Condition-250"/>
        <text>
          <status value="generated"/>
          <div xmlns="http://www.w3.org/1999/xhtml">
            Painful respiration
          </div>
        </text>
        <patient>
          <reference value="Patient/smart-767980"/>
        </patient>
        <code>
          <coding>
            <system value="http://snomed.info/sct"/>
            <code value="102588006"/>
            <display value="Painful respiration"/>
          </coding>
          <text value="Painful respiration"/>
        </code>
        <clinicalStatus value="active"/>
        <verificationStatus value="confirmed"/>
        <onsetDateTime value="2008-04-05"/>
      </Condition>
    </resource>
    <request>
      <method value="PUT"/>
      <url value="Condition/smart-Condition-250"/>
    </request>
  </entry>
  <entry>
    <resource>
      <Condition>
        <meta>
          <tag>
            <system value="https://smarthealthit.org/tags"/>
            <code value="smart-8-2017"/>
          </tag>
        </meta>
        <id value="smart-Condition-251"/>
        <text>
          <status value="generated"/>
          <div xmlns="http://www.w3.org/1999/xhtml">
            Pure hypercholesterolemia
          </div>
        </text>
        <patient>
          <reference value="Patient/smart-767980"/>
        </patient>
        <code>
          <coding>
            <system value="http://snomed.info/sct"/>
            <code value="267432004"/>
            <display value="Pure hypercholesterolemia"/>
          </coding>
          <text value="Pure hypercholesterolemia"/>
        </code>
        <clinicalStatus value="active"/>
        <verificationStatus value="confirmed"/>
        <onsetDateTime value="2008-04-05"/>
      </Condition>
    </resource>
    <request>
      <method value="PUT"/>
      <url value="Condition/smart-Condition-251"/>
    </request>
  </entry>
  <entry>
    <resource>
      <Condition>
        <meta>
          <tag>
            <system value="https://smarthealthit.org/tags"/>
            <code value="smart-8-2017"/>
          </tag>
        </meta>
        <id value="smart-Condition-252"/>
        <text>
          <status value="generated"/>
          <div xmlns="http://www.w3.org/1999/xhtml">
            Tobacco dependence syndrome
          </div>
        </text>
        <patient>
          <reference value="Patient/smart-767980"/>
        </patient>
        <code>
          <coding>
            <system value="http://snomed.info/sct"/>
            <code value="89765005"/>
            <display value="Tobacco dependence syndrome"/>
          </coding>
          <text value="Tobacco dependence syndrome"/>
        </code>
        <clinicalStatus value="active"/>
        <verificationStatus value="confirmed"/>
        <onsetDateTime value="2008-04-05"/>
      </Condition>
    </resource>
    <request>
      <method value="PUT"/>
      <url value="Condition/smart-Condition-252"/>
    </request>
  </entry>
  <entry>
    <resource>
      <Condition>
        <meta>
          <tag>
            <system value="https://smarthealthit.org/tags"/>
            <code value="smart-8-2017"/>
          </tag>
        </meta>
        <id value="smart-Condition-253"/>
        <text>
          <status value="generated"/>
          <div xmlns="http://www.w3.org/1999/xhtml">
            Bronchitis
          </div>
        </text>
        <patient>
          <reference value="Patient/smart-767980"/>
        </patient>
        <code>
          <coding>
            <system value="http://snomed.info/sct"/>
            <code value="32398004"/>
            <display value="Bronchitis"/>
          </coding>
          <text value="Bronchitis"/>
        </code>
        <clinicalStatus value="active"/>
        <verificationStatus value="confirmed"/>
        <onsetDateTime value="2008-06-11"/>
      </Condition>
    </resource>
    <request>
      <method value="PUT"/>
      <url value="Condition/smart-Condition-253"/>
    </request>
  </entry>
  <entry>
    <resource>
      <Condition>
        <meta>
          <tag>
            <system value="https://smarthealthit.org/tags"/>
            <code value="smart-8-2017"/>
          </tag>
        </meta>
        <id value="smart-Condition-254"/>
        <text>
          <status value="generated"/>
          <div xmlns="http://www.w3.org/1999/xhtml">
            Blood chemistry abnormal
          </div>
        </text>
        <patient>
          <reference value="Patient/smart-767980"/>
        </patient>
        <code>
          <coding>
            <system value="http://snomed.info/sct"/>
            <code value="80394007"/>
            <display value="Blood chemistry abnormal"/>
          </coding>
          <text value="Blood chemistry abnormal"/>
        </code>
        <clinicalStatus value="active"/>
        <verificationStatus value="confirmed"/>
        <onsetDateTime value="2008-06-15"/>
      </Condition>
    </resource>
    <request>
      <method value="PUT"/>
      <url value="Condition/smart-Condition-254"/>
    </request>
  </entry>
  <entry>
    <resource>
      <Condition>
        <meta>
          <tag>
            <system value="https://smarthealthit.org/tags"/>
            <code value="smart-8-2017"/>
          </tag>
        </meta>
        <id value="smart-Condition-255"/>
        <text>
          <status value="generated"/>
          <div xmlns="http://www.w3.org/1999/xhtml">
            Acute upper respiratory infection
          </div>
        </text>
        <patient>
          <reference value="Patient/smart-767980"/>
        </patient>
        <code>
          <coding>
            <system value="http://snomed.info/sct"/>
            <code value="54150009"/>
            <display value="Acute upper respiratory infection"/>
          </coding>
          <text value="Acute upper respiratory infection"/>
        </code>
        <clinicalStatus value="active"/>
        <verificationStatus value="confirmed"/>
        <onsetDateTime value="2008-08-03"/>
      </Condition>
    </resource>
    <request>
      <method value="PUT"/>
      <url value="Condition/smart-Condition-255"/>
    </request>
  </entry>
  <entry>
    <resource>
      <Condition>
        <meta>
          <tag>
            <system value="https://smarthealthit.org/tags"/>
            <code value="smart-8-2017"/>
          </tag>
        </meta>
        <id value="smart-Condition-256"/>
        <text>
          <status value="generated"/>
          <div xmlns="http://www.w3.org/1999/xhtml">
            Diabetes mellitus type 2
          </div>
        </text>
        <patient>
          <reference value="Patient/smart-767980"/>
        </patient>
        <code>
          <coding>
            <system value="http://snomed.info/sct"/>
            <code value="44054006"/>
            <display value="Diabetes mellitus type 2"/>
          </coding>
          <text value="Diabetes mellitus type 2"/>
        </code>
        <clinicalStatus value="active"/>
        <verificationStatus value="confirmed"/>
        <onsetDateTime value="2008-08-03"/>
      </Condition>
    </resource>
    <request>
      <method value="PUT"/>
      <url value="Condition/smart-Condition-256"/>
    </request>
  </entry>
  <entry>
    <resource>
      <Condition>
        <meta>
          <tag>
            <system value="https://smarthealthit.org/tags"/>
            <code value="smart-8-2017"/>
          </tag>
        </meta>
        <id value="smart-Condition-257"/>
        <text>
          <status value="generated"/>
          <div xmlns="http://www.w3.org/1999/xhtml">
            Needs influenza immunization
          </div>
        </text>
        <patient>
          <reference value="Patient/smart-767980"/>
        </patient>
        <code>
          <coding>
            <system value="http://snomed.info/sct"/>
            <code value="185903001"/>
            <display value="Needs influenza immunization"/>
          </coding>
          <text value="Needs influenza immunization"/>
        </code>
        <clinicalStatus value="active"/>
        <verificationStatus value="confirmed"/>
        <onsetDateTime value="2009-05-02"/>
      </Condition>
    </resource>
    <request>
      <method value="PUT"/>
      <url value="Condition/smart-Condition-257"/>
    </request>
  </entry>
  <entry>
    <resource>
      <Condition>
        <meta>
          <tag>
            <system value="https://smarthealthit.org/tags"/>
            <code value="smart-8-2017"/>
          </tag>
        </meta>
        <id value="smart-Condition-258"/>
        <text>
          <status value="generated"/>
          <div xmlns="http://www.w3.org/1999/xhtml">
            Incomplete emptying of bladder
          </div>
        </text>
        <patient>
          <reference value="Patient/smart-767980"/>
        </patient>
        <code>
          <coding>
            <system value="http://snomed.info/sct"/>
            <code value="249288007"/>
            <display value="Incomplete emptying of bladder"/>
          </coding>
          <text value="Incomplete emptying of bladder"/>
        </code>
        <clinicalStatus value="active"/>
        <verificationStatus value="confirmed"/>
        <onsetDateTime value="2009-08-09"/>
      </Condition>
    </resource>
    <request>
      <method value="PUT"/>
      <url value="Condition/smart-Condition-258"/>
    </request>
  </entry>
  <entry>
    <resource>
      <Observation>
        <id value="smart-Observation-14-smokingstatus"/>
        <text>
          <status value="generated"/>
          <div xmlns="http://www.w3.org/1999/xhtml">
            Tobacco smoking status: Current some day smoker
          </div>
        </text>
        <category>
          <coding>
            <system value="http://hl7.org/fhir/observation-category"/>
            <code value="social-history"/>
            <display value="Social History"/>
          </coding>
          <text value="Social History"/>
        </category>
        <code>
          <coding>
            <system value="http://loinc.org"/>
            <code value="72166-2"/>
            <display value="Tobacco smoking status"/>
          </coding>
          <text value="Tobacco smoking status"/>
        </code>
        <valueCodeableConcept>
          <coding>
            <system value="http://snomed.info/sct"/>
            <code value="428041000124106"/>
            <display value="Current some day smoker"/>
          </coding>
          <text value="Current some day smoker"/>
        </valueCodeableConcept>
        <status value="final"/>
        <subject>
          <reference value="Patient/smart-767980"/>
        </subject>
      </Observation>
    </resource>
    <request>
      <method value="PUT"/>
      <url value="Observation/smart-Observation-14-smokingstatus"/>
    </request>
  </entry>
  <entry>
    <resource>
      <List>
        <meta>
          <tag>
            <system value="https://smarthealthit.org/tags"/>
            <code value="smart-8-2017"/>
          </tag>
        </meta>
        <id value="smart-List-12"/>
        <text>
          <status value="generated"/>
          <div xmlns="http://www.w3.org/1999/xhtml">
            No known allergies
          </div>
        </text>
        <code>
          <coding>
            <system value="http://loinc.org/"/>
            <code value="52473-6"/>
            <display value="Allergy"/>
          </coding>
          <text value="Allergy"/>
        </code>
        <subject>
          <reference value="Patient/smart-767980"/>
        </subject>
        <date value="2000"/>
        <mode value="snapshot"/>
        <emptyReason>
          <coding>
            <system value="http://hl7.org/fhir/list-empty-reason"/>
            <code value="nilknown"/>
            <display value="Nil Known"/>
          </coding>
          <text value="Nil Known"/>
        </emptyReason>
      </List>
    </resource>
    <request>
      <method value="PUT"/>
      <url value="List/smart-List-12"/>
    </request>
  </entry>
</Bundle>