{
    "entry": [
        {
            "request": {
                "method": "PUT",
                "url": "Patient/smart-7777702"
            },
            "resource": {
                "active": true,
                "birthDate": "2012-03-26",
                "gender": "female",
                "generalPractitioner": [
                    {
                        "reference": "Practitioner/smart-Practitioner-72080416"
                    }
                ],
                "id": "smart-7777702",
                "identifier": [
                    {
                        "system": "http://hospital.smarthealthit.org",
                        "type": {
                            "coding": [
                                {
                                    "code": "MR",
                                    "display": "Medical Record Number",
                                    "system": "http://hl7.org/fhir/v2/0203"
                                }
                            ],
                            "text": "Medical Record Number"
                        },
                        "use": "official",
                        "value": "smart-7777702"
                    }
                ],
                "name": [
                    {
                        "family": "Warren",
                        "given": [
                            "Yolanda"
                        ],
                        "use": "official"
                    }
                ],
                "resourceType": "Patient",
                "text": {
                    "div": "<div xmlns=\"http://www.w3.org/1999/xhtml\">Yolanda Warren</div>",
                    "status": "generated"
                },
                "meta": {
                    "tag": [
                        {
                            "system": "https://smarthealthit.org/tags",
                            "code": "smart-7-2017"
                        }
                    ]
                }
            },
            "fullUrl": "/Patient/smart-7777702"
        },
        {
            "request": {
                "method": "PUT",
                "url": "Encounter/smart-984"
            },
            "resource": {
                "class": {
                    "code": "ambulatory"
                },
                "id": "smart-984",
                "period": {
                    "end": "2014-03-29",
                    "start": "2014-03-29"
                },
                "resourceType": "Encounter",
                "status": "finished",
                "subject": {
                    "reference": "Patient/smart-7777702"
                },
                "text": {
                    "div": "<div xmlns=\"http://www.w3.org/1999/xhtml\">2014-03-29: ambulatory encounter</div>",
                    "status": "generated"
                },
                "type": [
                    {
                        "coding": [
                            {
                                "code": "270427003",
                                "display": "Patient-initiated encounter",
                                "system": "http://snomed.info"
                            }
                        ],
                        "text": "Patient-initiated ambulatory encounter"
                    }
                ],
                "meta": {
                    "tag": [
                        {
                            "system": "https://smarthealthit.org/tags",
                            "code": "smart-7-2017"
                        }
                    ]
                }
            },
            "fullUrl": "/Encounter/smart-984"
        },
        {
            "request": {
                "method": "PUT",
                "url": "Encounter/smart-985"
            },
            "resource": {
                "class": {
                    "code": "ambulatory"
                },
                "id": "smart-985",
                "period": {
                    "end": "2014-05-05",
                    "start": "2014-05-05"
                },
                "resourceType": "Encounter",
                "status": "finished",
                "subject": {
                    "reference": "Patient/smart-7777702"
                },
                "text": {
                    "div": "<div xmlns=\"http://www.w3.org/1999/xhtml\">2014-05-05: ambulatory encounter</div>",
                    "status": "generated"
                },
                "type": [
                    {
                        "coding": [
                            {
                                "code": "270427003",
                                "display": "Patient-initiated encounter",
                                "system": "http://snomed.info"
                            }
                        ],
                        "text": "Patient-initiated ambulatory encounter"
                    }
                ],
                "meta": {
                    "tag": [
                        {
                            "system": "https://smarthealthit.org/tags",
                            "code": "smart-7-2017"
                        }
                    ]
                }
            },
            "fullUrl": "/Encounter/smart-985"
        },
        {
            "request": {
                "method": "PUT",
                "url": "Encounter/smart-986"
            },
            "resource": {
                "class": {
                    "code": "ambulatory"
                },
                "id": "smart-986",
                "period": {
                    "end": "2014-09-28",
                    "start": "2014-09-28"
                },
                "resourceType": "Encounter",
                "status": "finished",
                "subject": {
                    "reference": "Patient/smart-7777702"
                },
                "text": {
                    "div": "<div xmlns=\"http://www.w3.org/1999/xhtml\">2014-09-28: ambulatory encounter</div>",
                    "status": "generated"
                },
                "type": [
                    {
                        "coding": [
                            {
                                "code": "270427003",
                                "display": "Patient-initiated encounter",
                                "system": "http://snomed.info"
                            }
                        ],
                        "text": "Patient-initiated ambulatory encounter"
                    }
                ],
                "meta": {
                    "tag": [
                        {
                            "system": "https://smarthealthit.org/tags",
                            "code": "smart-7-2017"
                        }
                    ]
                }
            },
            "fullUrl": "/Encounter/smart-986"
        },
        {
            "request": {
                "method": "PUT",
                "url": "Encounter/smart-987"
            },
            "resource": {
                "class": {
                    "code": "ambulatory"
                },
                "id": "smart-987",
                "period": {
                    "end": "2014-11-03",
                    "start": "2014-11-03"
                },
                "resourceType": "Encounter",
                "status": "finished",
                "subject": {
                    "reference": "Patient/smart-7777702"
                },
                "text": {
                    "div": "<div xmlns=\"http://www.w3.org/1999/xhtml\">2014-11-03: ambulatory encounter</div>",
                    "status": "generated"
                },
                "type": [
                    {
                        "coding": [
                            {
                                "code": "270427003",
                                "display": "Patient-initiated encounter",
                                "system": "http://snomed.info"
                            }
                        ],
                        "text": "Patient-initiated ambulatory encounter"
                    }
                ],
                "meta": {
                    "tag": [
                        {
                            "system": "https://smarthealthit.org/tags",
                            "code": "smart-7-2017"
                        }
                    ]
                }
            },
            "fullUrl": "/Encounter/smart-987"
        },
        {
            "request": {
                "method": "PUT",
                "url": "Encounter/smart-988"
            },
            "resource": {
                "class": {
                    "code": "ambulatory"
                },
                "id": "smart-988",
                "period": {
                    "end": "2014-12-10",
                    "start": "2014-12-10"
                },
                "resourceType": "Encounter",
                "status": "finished",
                "subject": {
                    "reference": "Patient/smart-7777702"
                },
                "text": {
                    "div": "<div xmlns=\"http://www.w3.org/1999/xhtml\">2014-12-10: ambulatory encounter</div>",
                    "status": "generated"
                },
                "type": [
                    {
                        "coding": [
                            {
                                "code": "270427003",
                                "display": "Patient-initiated encounter",
                                "system": "http://snomed.info"
                            }
                        ],
                        "text": "Patient-initiated ambulatory encounter"
                    }
                ],
                "meta": {
                    "tag": [
                        {
                            "system": "https://smarthealthit.org/tags",
                            "code": "smart-7-2017"
                        }
                    ]
                }
            },
            "fullUrl": "/Encounter/smart-988"
        },
        {
            "request": {
                "method": "PUT",
                "url": "Encounter/smart-989"
            },
            "resource": {
                "class": {
                    "code": "ambulatory"
                },
                "id": "smart-989",
                "period": {
                    "end": "2015-01-15",
                    "start": "2015-01-15"
                },
                "resourceType": "Encounter",
                "status": "finished",
                "subject": {
                    "reference": "Patient/smart-7777702"
                },
                "text": {
                    "div": "<div xmlns=\"http://www.w3.org/1999/xhtml\">2015-01-15: ambulatory encounter</div>",
                    "status": "generated"
                },
                "type": [
                    {
                        "coding": [
                            {
                                "code": "270427003",
                                "display": "Patient-initiated encounter",
                                "system": "http://snomed.info"
                            }
                        ],
                        "text": "Patient-initiated ambulatory encounter"
                    }
                ],
                "meta": {
                    "tag": [
                        {
                            "system": "https://smarthealthit.org/tags",
                            "code": "smart-7-2017"
                        }
                    ]
                }
            },
            "fullUrl": "/Encounter/smart-989"
        },
        {
            "request": {
                "method": "PUT",
                "url": "Encounter/smart-990"
            },
            "resource": {
                "class": {
                    "code": "ambulatory"
                },
                "id": "smart-990",
                "period": {
                    "end": "2015-02-21",
                    "start": "2015-02-21"
                },
                "resourceType": "Encounter",
                "status": "finished",
                "subject": {
                    "reference": "Patient/smart-7777702"
                },
                "text": {
                    "div": "<div xmlns=\"http://www.w3.org/1999/xhtml\">2015-02-21: ambulatory encounter</div>",
                    "status": "generated"
                },
                "type": [
                    {
                        "coding": [
                            {
                                "code": "270427003",
                                "display": "Patient-initiated encounter",
                                "system": "http://snomed.info"
                            }
                        ],
                        "text": "Patient-initiated ambulatory encounter"
                    }
                ],
                "meta": {
                    "tag": [
                        {
                            "system": "https://smarthealthit.org/tags",
                            "code": "smart-7-2017"
                        }
                    ]
                }
            },
            "fullUrl": "/Encounter/smart-990"
        },
        {
            "request": {
                "method": "PUT",
                "url": "Encounter/smart-991"
            },
            "resource": {
                "class": {
                    "code": "ambulatory"
                },
                "id": "smart-991",
                "period": {
                    "end": "2015-03-29",
                    "start": "2015-03-29"
                },
                "resourceType": "Encounter",
                "status": "finished",
                "subject": {
                    "reference": "Patient/smart-7777702"
                },
                "text": {
                    "div": "<div xmlns=\"http://www.w3.org/1999/xhtml\">2015-03-29: ambulatory encounter</div>",
                    "status": "generated"
                },
                "type": [
                    {
                        "coding": [
                            {
                                "code": "270427003",
                                "display": "Patient-initiated encounter",
                                "system": "http://snomed.info"
                            }
                        ],
                        "text": "Patient-initiated ambulatory encounter"
                    }
                ],
                "meta": {
                    "tag": [
                        {
                            "system": "https://smarthealthit.org/tags",
                            "code": "smart-7-2017"
                        }
                    ]
                }
            },
            "fullUrl": "/Encounter/smart-991"
        },
        {
            "request": {
                "method": "PUT",
                "url": "Encounter/smart-992"
            },
            "resource": {
                "class": {
                    "code": "ambulatory"
                },
                "id": "smart-992",
                "period": {
                    "end": "2015-05-05",
                    "start": "2015-05-05"
                },
                "resourceType": "Encounter",
                "status": "finished",
                "subject": {
                    "reference": "Patient/smart-7777702"
                },
                "text": {
                    "div": "<div xmlns=\"http://www.w3.org/1999/xhtml\">2015-05-05: ambulatory encounter</div>",
                    "status": "generated"
                },
                "type": [
                    {
                        "coding": [
                            {
                                "code": "270427003",
                                "display": "Patient-initiated encounter",
                                "system": "http://snomed.info"
                            }
                        ],
                        "text": "Patient-initiated ambulatory encounter"
                    }
                ],
                "meta": {
                    "tag": [
                        {
                            "system": "https://smarthealthit.org/tags",
                            "code": "smart-7-2017"
                        }
                    ]
                }
            },
            "fullUrl": "/Encounter/smart-992"
        },
        {
            "request": {
                "method": "PUT",
                "url": "Encounter/smart-993"
            },
            "resource": {
                "class": {
                    "code": "ambulatory"
                },
                "id": "smart-993",
                "period": {
                    "end": "2015-06-10",
                    "start": "2015-06-10"
                },
                "resourceType": "Encounter",
                "status": "finished",
                "subject": {
                    "reference": "Patient/smart-7777702"
                },
                "text": {
                    "div": "<div xmlns=\"http://www.w3.org/1999/xhtml\">2015-06-10: ambulatory encounter</div>",
                    "status": "generated"
                },
                "type": [
                    {
                        "coding": [
                            {
                                "code": "270427003",
                                "display": "Patient-initiated encounter",
                                "system": "http://snomed.info"
                            }
                        ],
                        "text": "Patient-initiated ambulatory encounter"
                    }
                ],
                "meta": {
                    "tag": [
                        {
                            "system": "https://smarthealthit.org/tags",
                            "code": "smart-7-2017"
                        }
                    ]
                }
            },
            "fullUrl": "/Encounter/smart-993"
        },
        {
            "request": {
                "method": "PUT",
                "url": "Encounter/smart-994"
            },
            "resource": {
                "class": {
                    "code": "ambulatory"
                },
                "id": "smart-994",
                "period": {
                    "end": "2015-11-03",
                    "start": "2015-11-03"
                },
                "resourceType": "Encounter",
                "status": "finished",
                "subject": {
                    "reference": "Patient/smart-7777702"
                },
                "text": {
                    "div": "<div xmlns=\"http://www.w3.org/1999/xhtml\">2015-11-03: ambulatory encounter</div>",
                    "status": "generated"
                },
                "type": [
                    {
                        "coding": [
                            {
                                "code": "270427003",
                                "display": "Patient-initiated encounter",
                                "system": "http://snomed.info"
                            }
                        ],
                        "text": "Patient-initiated ambulatory encounter"
                    }
                ],
                "meta": {
                    "tag": [
                        {
                            "system": "https://smarthealthit.org/tags",
                            "code": "smart-7-2017"
                        }
                    ]
                }
            },
            "fullUrl": "/Encounter/smart-994"
        },
        {
            "request": {
                "method": "PUT",
                "url": "Encounter/smart-995"
            },
            "resource": {
                "class": {
                    "code": "ambulatory"
                },
                "id": "smart-995",
                "period": {
                    "end": "2016-03-28",
                    "start": "2016-03-28"
                },
                "resourceType": "Encounter",
                "status": "finished",
                "subject": {
                    "reference": "Patient/smart-7777702"
                },
                "text": {
                    "div": "<div xmlns=\"http://www.w3.org/1999/xhtml\">2016-03-28: ambulatory encounter</div>",
                    "status": "generated"
                },
                "type": [
                    {
                        "coding": [
                            {
                                "code": "270427003",
                                "display": "Patient-initiated encounter",
                                "system": "http://snomed.info"
                            }
                        ],
                        "text": "Patient-initiated ambulatory encounter"
                    }
                ],
                "meta": {
                    "tag": [
                        {
                            "system": "https://smarthealthit.org/tags",
                            "code": "smart-7-2017"
                        }
                    ]
                }
            },
            "fullUrl": "/Encounter/smart-995"
        },
        {
            "request": {
                "method": "PUT",
                "url": "Encounter/smart-996"
            },
            "resource": {
                "class": {
                    "code": "ambulatory"
                },
                "id": "smart-996",
                "period": {
                    "end": "2016-08-21",
                    "start": "2016-08-21"
                },
                "resourceType": "Encounter",
                "status": "finished",
                "subject": {
                    "reference": "Patient/smart-7777702"
                },
                "text": {
                    "div": "<div xmlns=\"http://www.w3.org/1999/xhtml\">2016-08-21: ambulatory encounter</div>",
                    "status": "generated"
                },
                "type": [
                    {
                        "coding": [
                            {
                                "code": "270427003",
                                "display": "Patient-initiated encounter",
                                "system": "http://snomed.info"
                            }
                        ],
                        "text": "Patient-initiated ambulatory encounter"
                    }
                ],
                "meta": {
                    "tag": [
                        {
                            "system": "https://smarthealthit.org/tags",
                            "code": "smart-7-2017"
                        }
                    ]
                }
            },
            "fullUrl": "/Encounter/smart-996"
        },
        {
            "request": {
                "method": "PUT",
                "url": "Observation/smart-1532-height"
            },
            "resource": {
                "category": [
                    {
                        "coding": [
                            {
                                "code": "vital-signs",
                                "display": "Vital Signs",
                                "system": "http://hl7.org/fhir/observation-category"
                            }
                        ],
                        "text": "Vital Signs"
                    }
                ],
                "code": {
                    "coding": [
                        {
                            "code": "8302-2",
                            "display": "height",
                            "system": "http://loinc.org"
                        }
                    ],
                    "text": "height"
                },
                "context": {
                    "reference": "Encounter/smart-984"
                },
                "effectiveDateTime": "2014-03-29",
                "id": "smart-1532-height",
                "identifier": [
                    {
                        "system": "http://www.bmc.nl/zorgportal/identifiers/observations",
                        "use": "official",
                        "value": "smart-1532-height"
                    }
                ],
                "performer": [
                    {
                        "reference": "Practitioner/smart-Practitioner-72080416"
                    }
                ],
                "resourceType": "Observation",
                "status": "unknown",
                "subject": {
                    "reference": "Patient/smart-7777702"
                },
                "text": {
                    "div": "<div xmlns=\"http://www.w3.org/1999/xhtml\">2014-03-29: height = 78.5 cm</div>",
                    "status": "generated"
                },
                "valueQuantity": {
                    "code": "cm",
                    "system": "http://unitsofmeasure.org",
                    "unit": "cm",
                    "value": 78.5
                },
                "meta": {
                    "tag": [
                        {
                            "system": "https://smarthealthit.org/tags",
                            "code": "smart-7-2017"
                        }
                    ]
                }
            },
            "fullUrl": "/Observation/smart-1532-height"
        },
        {
            "request": {
                "method": "PUT",
                "url": "Observation/smart-1533-weight"
            },
            "resource": {
                "category": [
                    {
                        "coding": [
                            {
                                "code": "vital-signs",
                                "display": "Vital Signs",
                                "system": "http://hl7.org/fhir/observation-category"
                            }
                        ],
                        "text": "Vital Signs"
                    }
                ],
                "code": {
                    "coding": [
                        {
                            "code": "3141-9",
                            "display": "weight",
                            "system": "http://loinc.org"
                        }
                    ],
                    "text": "weight"
                },
                "context": {
                    "reference": "Encounter/smart-984"
                },
                "effectiveDateTime": "2014-03-29",
                "id": "smart-1533-weight",
                "identifier": [
                    {
                        "system": "http://www.bmc.nl/zorgportal/identifiers/observations",
                        "use": "official",
                        "value": "smart-1533-weight"
                    }
                ],
                "performer": [
                    {
                        "reference": "Practitioner/smart-Practitioner-72080416"
                    }
                ],
                "resourceType": "Observation",
                "status": "unknown",
                "subject": {
                    "reference": "Patient/smart-7777702"
                },
                "text": {
                    "div": "<div xmlns=\"http://www.w3.org/1999/xhtml\">2014-03-29: weight = 9.8 kg</div>",
                    "status": "generated"
                },
                "valueQuantity": {
                    "code": "kg",
                    "system": "http://unitsofmeasure.org",
                    "unit": "kg",
                    "value": 9.8
                },
                "meta": {
                    "tag": [
                        {
                            "system": "https://smarthealthit.org/tags",
                            "code": "smart-7-2017"
                        }
                    ]
                }
            },
            "fullUrl": "/Observation/smart-1533-weight"
        },
        {
            "request": {
                "method": "PUT",
                "url": "Observation/smart-1534-height"
            },
            "resource": {
                "category": [
                    {
                        "coding": [
                            {
                                "code": "vital-signs",
                                "display": "Vital Signs",
                                "system": "http://hl7.org/fhir/observation-category"
                            }
                        ],
                        "text": "Vital Signs"
                    }
                ],
                "code": {
                    "coding": [
                        {
                            "code": "8302-2",
                            "display": "height",
                            "system": "http://loinc.org"
                        }
                    ],
                    "text": "height"
                },
                "context": {
                    "reference": "Encounter/smart-985"
                },
                "effectiveDateTime": "2014-05-05",
                "id": "smart-1534-height",
                "identifier": [
                    {
                        "system": "http://www.bmc.nl/zorgportal/identifiers/observations",
                        "use": "official",
                        "value": "smart-1534-height"
                    }
                ],
                "performer": [
                    {
                        "reference": "Practitioner/smart-Practitioner-72080416"
                    }
                ],
                "resourceType": "Observation",
                "status": "unknown",
                "subject": {
                    "reference": "Patient/smart-7777702"
                },
                "text": {
                    "div": "<div xmlns=\"http://www.w3.org/1999/xhtml\">2014-05-05: height = 78.5 cm</div>",
                    "status": "generated"
                },
                "valueQuantity": {
                    "code": "cm",
                    "system": "http://unitsofmeasure.org",
                    "unit": "cm",
                    "value": 78.5
                },
                "meta": {
                    "tag": [
                        {
                            "system": "https://smarthealthit.org/tags",
                            "code": "smart-7-2017"
                        }
                    ]
                }
            },
            "fullUrl": "/Observation/smart-1534-height"
        },
        {
            "request": {
                "method": "PUT",
                "url": "Observation/smart-1535-weight"
            },
            "resource": {
                "category": [
                    {
                        "coding": [
                            {
                                "code": "vital-signs",
                                "display": "Vital Signs",
                                "system": "http://hl7.org/fhir/observation-category"
                            }
                        ],
                        "text": "Vital Signs"
                    }
                ],
                "code": {
                    "coding": [
                        {
                            "code": "3141-9",
                            "display": "weight",
                            "system": "http://loinc.org"
                        }
                    ],
                    "text": "weight"
                },
                "context": {
                    "reference": "Encounter/smart-985"
                },
                "effectiveDateTime": "2014-05-05",
                "id": "smart-1535-weight",
                "identifier": [
                    {
                        "system": "http://www.bmc.nl/zorgportal/identifiers/observations",
                        "use": "official",
                        "value": "smart-1535-weight"
                    }
                ],
                "performer": [
                    {
                        "reference": "Practitioner/smart-Practitioner-72080416"
                    }
                ],
                "resourceType": "Observation",
                "status": "unknown",
                "subject": {
                    "reference": "Patient/smart-7777702"
                },
                "text": {
                    "div": "<div xmlns=\"http://www.w3.org/1999/xhtml\">2014-05-05: weight = 9.8 kg</div>",
                    "status": "generated"
                },
                "valueQuantity": {
                    "code": "kg",
                    "system": "http://unitsofmeasure.org",
                    "unit": "kg",
                    "value": 9.8
                },
                "meta": {
                    "tag": [
                        {
                            "system": "https://smarthealthit.org/tags",
                            "code": "smart-7-2017"
                        }
                    ]
                }
            },
            "fullUrl": "/Observation/smart-1535-weight"
        },
        {
            "request": {
                "method": "PUT",
                "url": "Observation/smart-1536-height"
            },
            "resource": {
                "category": [
                    {
                        "coding": [
                            {
                                "code": "vital-signs",
                                "display": "Vital Signs",
                                "system": "http://hl7.org/fhir/observation-category"
                            }
                        ],
                        "text": "Vital Signs"
                    }
                ],
                "code": {
                    "coding": [
                        {
                            "code": "8302-2",
                            "display": "height",
                            "system": "http://loinc.org"
                        }
                    ],
                    "text": "height"
                },
                "context": {
                    "reference": "Encounter/smart-986"
                },
                "effectiveDateTime": "2014-09-28",
                "id": "smart-1536-height",
                "identifier": [
                    {
                        "system": "http://www.bmc.nl/zorgportal/identifiers/observations",
                        "use": "official",
                        "value": "smart-1536-height"
                    }
                ],
                "performer": [
                    {
                        "reference": "Practitioner/smart-Practitioner-72080416"
                    }
                ],
                "resourceType": "Observation",
                "status": "unknown",
                "subject": {
                    "reference": "Patient/smart-7777702"
                },
                "text": {
                    "div": "<div xmlns=\"http://www.w3.org/1999/xhtml\">2014-09-28: height = 82.3 cm</div>",
                    "status": "generated"
                },
                "valueQuantity": {
                    "code": "cm",
                    "system": "http://unitsofmeasure.org",
                    "unit": "cm",
                    "value": 82.3
                },
                "meta": {
                    "tag": [
                        {
                            "system": "https://smarthealthit.org/tags",
                            "code": "smart-7-2017"
                        }
                    ]
                }
            },
            "fullUrl": "/Observation/smart-1536-height"
        },
        {
            "request": {
                "method": "PUT",
                "url": "Observation/smart-1537-weight"
            },
            "resource": {
                "category": [
                    {
                        "coding": [
                            {
                                "code": "vital-signs",
                                "display": "Vital Signs",
                                "system": "http://hl7.org/fhir/observation-category"
                            }
                        ],
                        "text": "Vital Signs"
                    }
                ],
                "code": {
                    "coding": [
                        {
                            "code": "3141-9",
                            "display": "weight",
                            "system": "http://loinc.org"
                        }
                    ],
                    "text": "weight"
                },
                "context": {
                    "reference": "Encounter/smart-986"
                },
                "effectiveDateTime": "2014-09-28",
                "id": "smart-1537-weight",
                "identifier": [
                    {
                        "system": "http://www.bmc.nl/zorgportal/identifiers/observations",
                        "use": "official",
                        "value": "smart-1537-weight"
                    }
                ],
                "performer": [
                    {
                        "reference": "Practitioner/smart-Practitioner-72080416"
                    }
                ],
                "resourceType": "Observation",
                "status": "unknown",
                "subject": {
                    "reference": "Patient/smart-7777702"
                },
                "text": {
                    "div": "<div xmlns=\"http://www.w3.org/1999/xhtml\">2014-09-28: weight = 10.9 kg</div>",
                    "status": "generated"
                },
                "valueQuantity": {
                    "code": "kg",
                    "system": "http://unitsofmeasure.org",
                    "unit": "kg",
                    "value": 10.9
                },
                "meta": {
                    "tag": [
                        {
                            "system": "https://smarthealthit.org/tags",
                            "code": "smart-7-2017"
                        }
                    ]
                }
            },
            "fullUrl": "/Observation/smart-1537-weight"
        },
        {
            "request": {
                "method": "PUT",
                "url": "Observation/smart-1538-height"
            },
            "resource": {
                "category": [
                    {
                        "coding": [
                            {
                                "code": "vital-signs",
                                "display": "Vital Signs",
                                "system": "http://hl7.org/fhir/observation-category"
                            }
                        ],
                        "text": "Vital Signs"
                    }
                ],
                "code": {
                    "coding": [
                        {
                            "code": "8302-2",
                            "display": "height",
                            "system": "http://loinc.org"
                        }
                    ],
                    "text": "height"
                },
                "context": {
                    "reference": "Encounter/smart-987"
                },
                "effectiveDateTime": "2014-11-03",
                "id": "smart-1538-height",
                "identifier": [
                    {
                        "system": "http://www.bmc.nl/zorgportal/identifiers/observations",
                        "use": "official",
                        "value": "smart-1538-height"
                    }
                ],
                "performer": [
                    {
                        "reference": "Practitioner/smart-Practitioner-72080416"
                    }
                ],
                "resourceType": "Observation",
                "status": "unknown",
                "subject": {
                    "reference": "Patient/smart-7777702"
                },
                "text": {
                    "div": "<div xmlns=\"http://www.w3.org/1999/xhtml\">2014-11-03: height = 82.3 cm</div>",
                    "status": "generated"
                },
                "valueQuantity": {
                    "code": "cm",
                    "system": "http://unitsofmeasure.org",
                    "unit": "cm",
                    "value": 82.3
                },
                "meta": {
                    "tag": [
                        {
                            "system": "https://smarthealthit.org/tags",
                            "code": "smart-7-2017"
                        }
                    ]
                }
            },
            "fullUrl": "/Observation/smart-1538-height"
        },
        {
            "request": {
                "method": "PUT",
                "url": "Observation/smart-1539-weight"
            },
            "resource": {
                "category": [
                    {
                        "coding": [
                            {
                                "code": "vital-signs",
                                "display": "Vital Signs",
                                "system": "http://hl7.org/fhir/observation-category"
                            }
                        ],
                        "text": "Vital Signs"
                    }
                ],
                "code": {
                    "coding": [
                        {
                            "code": "3141-9",
                            "display": "weight",
                            "system": "http://loinc.org"
                        }
                    ],
                    "text": "weight"
                },
                "context": {
                    "reference": "Encounter/smart-987"
                },
                "effectiveDateTime": "2014-11-03",
                "id": "smart-1539-weight",
                "identifier": [
                    {
                        "system": "http://www.bmc.nl/zorgportal/identifiers/observations",
                        "use": "official",
                        "value": "smart-1539-weight"
                    }
                ],
                "performer": [
                    {
                        "reference": "Practitioner/smart-Practitioner-72080416"
                    }
                ],
                "resourceType": "Observation",
                "status": "unknown",
                "subject": {
                    "reference": "Patient/smart-7777702"
                },
                "text": {
                    "div": "<div xmlns=\"http://www.w3.org/1999/xhtml\">2014-11-03: weight = 11.2 kg</div>",
                    "status": "generated"
                },
                "valueQuantity": {
                    "code": "kg",
                    "system": "http://unitsofmeasure.org",
                    "unit": "kg",
                    "value": 11.2
                },
                "meta": {
                    "tag": [
                        {
                            "system": "https://smarthealthit.org/tags",
                            "code": "smart-7-2017"
                        }
                    ]
                }
            },
            "fullUrl": "/Observation/smart-1539-weight"
        },
        {
            "request": {
                "method": "PUT",
                "url": "Observation/smart-1540-height"
            },
            "resource": {
                "category": [
                    {
                        "coding": [
                            {
                                "code": "vital-signs",
                                "display": "Vital Signs",
                                "system": "http://hl7.org/fhir/observation-category"
                            }
                        ],
                        "text": "Vital Signs"
                    }
                ],
                "code": {
                    "coding": [
                        {
                            "code": "8302-2",
                            "display": "height",
                            "system": "http://loinc.org"
                        }
                    ],
                    "text": "height"
                },
                "context": {
                    "reference": "Encounter/smart-988"
                },
                "effectiveDateTime": "2014-12-10",
                "id": "smart-1540-height",
                "identifier": [
                    {
                        "system": "http://www.bmc.nl/zorgportal/identifiers/observations",
                        "use": "official",
                        "value": "smart-1540-height"
                    }
                ],
                "performer": [
                    {
                        "reference": "Practitioner/smart-Practitioner-72080416"
                    }
                ],
                "resourceType": "Observation",
                "status": "unknown",
                "subject": {
                    "reference": "Patient/smart-7777702"
                },
                "text": {
                    "div": "<div xmlns=\"http://www.w3.org/1999/xhtml\">2014-12-10: height = 84.0 cm</div>",
                    "status": "generated"
                },
                "valueQuantity": {
                    "code": "cm",
                    "system": "http://unitsofmeasure.org",
                    "unit": "cm",
                    "value": 84
                },
                "meta": {
                    "tag": [
                        {
                            "system": "https://smarthealthit.org/tags",
                            "code": "smart-7-2017"
                        }
                    ]
                }
            },
            "fullUrl": "/Observation/smart-1540-height"
        },
        {
            "request": {
                "method": "PUT",
                "url": "Observation/smart-1541-weight"
            },
            "resource": {
                "category": [
                    {
                        "coding": [
                            {
                                "code": "vital-signs",
                                "display": "Vital Signs",
                                "system": "http://hl7.org/fhir/observation-category"
                            }
                        ],
                        "text": "Vital Signs"
                    }
                ],
                "code": {
                    "coding": [
                        {
                            "code": "3141-9",
                            "display": "weight",
                            "system": "http://loinc.org"
                        }
                    ],
                    "text": "weight"
                },
                "context": {
                    "reference": "Encounter/smart-988"
                },
                "effectiveDateTime": "2014-12-10",
                "id": "smart-1541-weight",
                "identifier": [
                    {
                        "system": "http://www.bmc.nl/zorgportal/identifiers/observations",
                        "use": "official",
                        "value": "smart-1541-weight"
                    }
                ],
                "performer": [
                    {
                        "reference": "Practitioner/smart-Practitioner-72080416"
                    }
                ],
                "resourceType": "Observation",
                "status": "unknown",
                "subject": {
                    "reference": "Patient/smart-7777702"
                },
                "text": {
                    "div": "<div xmlns=\"http://www.w3.org/1999/xhtml\">2014-12-10: weight = 11.2 kg</div>",
                    "status": "generated"
                },
                "valueQuantity": {
                    "code": "kg",
                    "system": "http://unitsofmeasure.org",
                    "unit": "kg",
                    "value": 11.2
                },
                "meta": {
                    "tag": [
                        {
                            "system": "https://smarthealthit.org/tags",
                            "code": "smart-7-2017"
                        }
                    ]
                }
            },
            "fullUrl": "/Observation/smart-1541-weight"
        },
        {
            "request": {
                "method": "PUT",
                "url": "Observation/smart-1542-height"
            },
            "resource": {
                "category": [
                    {
                        "coding": [
                            {
                                "code": "vital-signs",
                                "display": "Vital Signs",
                                "system": "http://hl7.org/fhir/observation-category"
                            }
                        ],
                        "text": "Vital Signs"
                    }
                ],
                "code": {
                    "coding": [
                        {
                            "code": "8302-2",
                            "display": "height",
                            "system": "http://loinc.org"
                        }
                    ],
                    "text": "height"
                },
                "context": {
                    "reference": "Encounter/smart-989"
                },
                "effectiveDateTime": "2015-01-15",
                "id": "smart-1542-height",
                "identifier": [
                    {
                        "system": "http://www.bmc.nl/zorgportal/identifiers/observations",
                        "use": "official",
                        "value": "smart-1542-height"
                    }
                ],
                "performer": [
                    {
                        "reference": "Practitioner/smart-Practitioner-72080416"
                    }
                ],
                "resourceType": "Observation",
                "status": "unknown",
                "subject": {
                    "reference": "Patient/smart-7777702"
                },
                "text": {
                    "div": "<div xmlns=\"http://www.w3.org/1999/xhtml\">2015-01-15: height = 83.5 cm</div>",
                    "status": "generated"
                },
                "valueQuantity": {
                    "code": "cm",
                    "system": "http://unitsofmeasure.org",
                    "unit": "cm",
                    "value": 83.5
                },
                "meta": {
                    "tag": [
                        {
                            "system": "https://smarthealthit.org/tags",
                            "code": "smart-7-2017"
                        }
                    ]
                }
            },
            "fullUrl": "/Observation/smart-1542-height"
        },
        {
            "request": {
                "method": "PUT",
                "url": "Observation/smart-1543-weight"
            },
            "resource": {
                "category": [
                    {
                        "coding": [
                            {
                                "code": "vital-signs",
                                "display": "Vital Signs",
                                "system": "http://hl7.org/fhir/observation-category"
                            }
                        ],
                        "text": "Vital Signs"
                    }
                ],
                "code": {
                    "coding": [
                        {
                            "code": "3141-9",
                            "display": "weight",
                            "system": "http://loinc.org"
                        }
                    ],
                    "text": "weight"
                },
                "context": {
                    "reference": "Encounter/smart-989"
                },
                "effectiveDateTime": "2015-01-15",
                "id": "smart-1543-weight",
                "identifier": [
                    {
                        "system": "http://www.bmc.nl/zorgportal/identifiers/observations",
                        "use": "official",
                        "value": "smart-1543-weight"
                    }
                ],
                "performer": [
                    {
                        "reference": "Practitioner/smart-Practitioner-72080416"
                    }
                ],
                "resourceType": "Observation",
                "status": "unknown",
                "subject": {
                    "reference": "Patient/smart-7777702"
                },
                "text": {
                    "div": "<div xmlns=\"http://www.w3.org/1999/xhtml\">2015-01-15: weight = 11.7 kg</div>",
                    "status": "generated"
                },
                "valueQuantity": {
                    "code": "kg",
                    "system": "http://unitsofmeasure.org",
                    "unit": "kg",
                    "value": 11.7
                },
                "meta": {
                    "tag": [
                        {
                            "system": "https://smarthealthit.org/tags",
                            "code": "smart-7-2017"
                        }
                    ]
                }
            },
            "fullUrl": "/Observation/smart-1543-weight"
        },
        {
            "request": {
                "method": "PUT",
                "url": "Observation/smart-1544-height"
            },
            "resource": {
                "category": [
                    {
                        "coding": [
                            {
                                "code": "vital-signs",
                                "display": "Vital Signs",
                                "system": "http://hl7.org/fhir/observation-category"
                            }
                        ],
                        "text": "Vital Signs"
                    }
                ],
                "code": {
                    "coding": [
                        {
                            "code": "8302-2",
                            "display": "height",
                            "system": "http://loinc.org"
                        }
                    ],
                    "text": "height"
                },
                "context": {
                    "reference": "Encounter/smart-990"
                },
                "effectiveDateTime": "2015-02-21",
                "id": "smart-1544-height",
                "identifier": [
                    {
                        "system": "http://www.bmc.nl/zorgportal/identifiers/observations",
                        "use": "official",
                        "value": "smart-1544-height"
                    }
                ],
                "performer": [
                    {
                        "reference": "Practitioner/smart-Practitioner-72080416"
                    }
                ],
                "resourceType": "Observation",
                "status": "unknown",
                "subject": {
                    "reference": "Patient/smart-7777702"
                },
                "text": {
                    "div": "<div xmlns=\"http://www.w3.org/1999/xhtml\">2015-02-21: height = 85.5 cm</div>",
                    "status": "generated"
                },
                "valueQuantity": {
                    "code": "cm",
                    "system": "http://unitsofmeasure.org",
                    "unit": "cm",
                    "value": 85.5
                },
                "meta": {
                    "tag": [
                        {
                            "system": "https://smarthealthit.org/tags",
                            "code": "smart-7-2017"
                        }
                    ]
                }
            },
            "fullUrl": "/Observation/smart-1544-height"
        },
        {
            "request": {
                "method": "PUT",
                "url": "Observation/smart-1545-weight"
            },
            "resource": {
                "category": [
                    {
                        "coding": [
                            {
                                "code": "vital-signs",
                                "display": "Vital Signs",
                                "system": "http://hl7.org/fhir/observation-category"
                            }
                        ],
                        "text": "Vital Signs"
                    }
                ],
                "code": {
                    "coding": [
                        {
                            "code": "3141-9",
                            "display": "weight",
                            "system": "http://loinc.org"
                        }
                    ],
                    "text": "weight"
                },
                "context": {
                    "reference": "Encounter/smart-990"
                },
                "effectiveDateTime": "2015-02-21",
                "id": "smart-1545-weight",
                "identifier": [
                    {
                        "system": "http://www.bmc.nl/zorgportal/identifiers/observations",
                        "use": "official",
                        "value": "smart-1545-weight"
                    }
                ],
                "performer": [
                    {
                        "reference": "Practitioner/smart-Practitioner-72080416"
                    }
                ],
                "resourceType": "Observation",
                "status": "unknown",
                "subject": {
                    "reference": "Patient/smart-7777702"
                },
                "text": {
                    "div": "<div xmlns=\"http://www.w3.org/1999/xhtml\">2015-02-21: weight = 11.0 kg</div>",
                    "status": "generated"
                },
                "valueQuantity": {
                    "code": "kg",
                    "system": "http://unitsofmeasure.org",
                    "unit": "kg",
                    "value": 11
                },
                "meta": {
                    "tag": [
                        {
                            "system": "https://smarthealthit.org/tags",
                            "code": "smart-7-2017"
                        }
                    ]
                }
            },
            "fullUrl": "/Observation/smart-1545-weight"
        },
        {
            "request": {
                "method": "PUT",
                "url": "Observation/smart-1546-height"
            },
            "resource": {
                "category": [
                    {
                        "coding": [
                            {
                                "code": "vital-signs",
                                "display": "Vital Signs",
                                "system": "http://hl7.org/fhir/observation-category"
                            }
                        ],
                        "text": "Vital Signs"
                    }
                ],
                "code": {
                    "coding": [
                        {
                            "code": "8302-2",
                            "display": "height",
                            "system": "http://loinc.org"
                        }
                    ],
                    "text": "height"
                },
                "context": {
                    "reference": "Encounter/smart-991"
                },
                "effectiveDateTime": "2015-03-29",
                "id": "smart-1546-height",
                "identifier": [
                    {
                        "system": "http://www.bmc.nl/zorgportal/identifiers/observations",
                        "use": "official",
                        "value": "smart-1546-height"
                    }
                ],
                "performer": [
                    {
                        "reference": "Practitioner/smart-Practitioner-72080416"
                    }
                ],
                "resourceType": "Observation",
                "status": "unknown",
                "subject": {
                    "reference": "Patient/smart-7777702"
                },
                "text": {
                    "div": "<div xmlns=\"http://www.w3.org/1999/xhtml\">2015-03-29: height = 86.3 cm</div>",
                    "status": "generated"
                },
                "valueQuantity": {
                    "code": "cm",
                    "system": "http://unitsofmeasure.org",
                    "unit": "cm",
                    "value": 86.3
                },
                "meta": {
                    "tag": [
                        {
                            "system": "https://smarthealthit.org/tags",
                            "code": "smart-7-2017"
                        }
                    ]
                }
            },
            "fullUrl": "/Observation/smart-1546-height"
        },
        {
            "request": {
                "method": "PUT",
                "url": "Observation/smart-1547-weight"
            },
            "resource": {
                "category": [
                    {
                        "coding": [
                            {
                                "code": "vital-signs",
                                "display": "Vital Signs",
                                "system": "http://hl7.org/fhir/observation-category"
                            }
                        ],
                        "text": "Vital Signs"
                    }
                ],
                "code": {
                    "coding": [
                        {
                            "code": "3141-9",
                            "display": "weight",
                            "system": "http://loinc.org"
                        }
                    ],
                    "text": "weight"
                },
                "context": {
                    "reference": "Encounter/smart-991"
                },
                "effectiveDateTime": "2015-03-29",
                "id": "smart-1547-weight",
                "identifier": [
                    {
                        "system": "http://www.bmc.nl/zorgportal/identifiers/observations",
                        "use": "official",
                        "value": "smart-1547-weight"
                    }
                ],
                "performer": [
                    {
                        "reference": "Practitioner/smart-Practitioner-72080416"
                    }
                ],
                "resourceType": "Observation",
                "status": "unknown",
                "subject": {
                    "reference": "Patient/smart-7777702"
                },
                "text": {
                    "div": "<div xmlns=\"http://www.w3.org/1999/xhtml\">2015-03-29: weight = 11.3 kg</div>",
                    "status": "generated"
                },
                "valueQuantity": {
                    "code": "kg",
                    "system": "http://unitsofmeasure.org",
                    "unit": "kg",
                    "value": 11.3
                },
                "meta": {
                    "tag": [
                        {
                            "system": "https://smarthealthit.org/tags",
                            "code": "smart-7-2017"
                        }
                    ]
                }
            },
            "fullUrl": "/Observation/smart-1547-weight"
        },
        {
            "request": {
                "method": "PUT",
                "url": "Observation/smart-1548-height"
            },
            "resource": {
                "category": [
                    {
                        "coding": [
                            {
                                "code": "vital-signs",
                                "display": "Vital Signs",
                                "system": "http://hl7.org/fhir/observation-category"
                            }
                        ],
                        "text": "Vital Signs"
                    }
                ],
                "code": {
                    "coding": [
                        {
                            "code": "8302-2",
                            "display": "height",
                            "system": "http://loinc.org"
                        }
                    ],
                    "text": "height"
                },
                "context": {
                    "reference": "Encounter/smart-992"
                },
                "effectiveDateTime": "2015-05-05",
                "id": "smart-1548-height",
                "identifier": [
                    {
                        "system": "http://www.bmc.nl/zorgportal/identifiers/observations",
                        "use": "official",
                        "value": "smart-1548-height"
                    }
                ],
                "performer": [
                    {
                        "reference": "Practitioner/smart-Practitioner-72080416"
                    }
                ],
                "resourceType": "Observation",
                "status": "unknown",
                "subject": {
                    "reference": "Patient/smart-7777702"
                },
                "text": {
                    "div": "<div xmlns=\"http://www.w3.org/1999/xhtml\">2015-05-05: height = 86.3 cm</div>",
                    "status": "generated"
                },
                "valueQuantity": {
                    "code": "cm",
                    "system": "http://unitsofmeasure.org",
                    "unit": "cm",
                    "value": 86.3
                },
                "meta": {
                    "tag": [
                        {
                            "system": "https://smarthealthit.org/tags",
                            "code": "smart-7-2017"
                        }
                    ]
                }
            },
            "fullUrl": "/Observation/smart-1548-height"
        },
        {
            "request": {
                "method": "PUT",
                "url": "Observation/smart-1549-weight"
            },
            "resource": {
                "category": [
                    {
                        "coding": [
                            {
                                "code": "vital-signs",
                                "display": "Vital Signs",
                                "system": "http://hl7.org/fhir/observation-category"
                            }
                        ],
                        "text": "Vital Signs"
                    }
                ],
                "code": {
                    "coding": [
                        {
                            "code": "3141-9",
                            "display": "weight",
                            "system": "http://loinc.org"
                        }
                    ],
                    "text": "weight"
                },
                "context": {
                    "reference": "Encounter/smart-992"
                },
                "effectiveDateTime": "2015-05-05",
                "id": "smart-1549-weight",
                "identifier": [
                    {
                        "system": "http://www.bmc.nl/zorgportal/identifiers/observations",
                        "use": "official",
                        "value": "smart-1549-weight"
                    }
                ],
                "performer": [
                    {
                        "reference": "Practitioner/smart-Practitioner-72080416"
                    }
                ],
                "resourceType": "Observation",
                "status": "unknown",
                "subject": {
                    "reference": "Patient/smart-7777702"
                },
                "text": {
                    "div": "<div xmlns=\"http://www.w3.org/1999/xhtml\">2015-05-05: weight = 11.9 kg</div>",
                    "status": "generated"
                },
                "valueQuantity": {
                    "code": "kg",
                    "system": "http://unitsofmeasure.org",
                    "unit": "kg",
                    "value": 11.9
                },
                "meta": {
                    "tag": [
                        {
                            "system": "https://smarthealthit.org/tags",
                            "code": "smart-7-2017"
                        }
                    ]
                }
            },
            "fullUrl": "/Observation/smart-1549-weight"
        },
        {
            "request": {
                "method": "PUT",
                "url": "Observation/smart-1550-height"
            },
            "resource": {
                "category": [
                    {
                        "coding": [
                            {
                                "code": "vital-signs",
                                "display": "Vital Signs",
                                "system": "http://hl7.org/fhir/observation-category"
                            }
                        ],
                        "text": "Vital Signs"
                    }
                ],
                "code": {
                    "coding": [
                        {
                            "code": "8302-2",
                            "display": "height",
                            "system": "http://loinc.org"
                        }
                    ],
                    "text": "height"
                },
                "context": {
                    "reference": "Encounter/smart-993"
                },
                "effectiveDateTime": "2015-06-10",
                "id": "smart-1550-height",
                "identifier": [
                    {
                        "system": "http://www.bmc.nl/zorgportal/identifiers/observations",
                        "use": "official",
                        "value": "smart-1550-height"
                    }
                ],
                "performer": [
                    {
                        "reference": "Practitioner/smart-Practitioner-72080416"
                    }
                ],
                "resourceType": "Observation",
                "status": "unknown",
                "subject": {
                    "reference": "Patient/smart-7777702"
                },
                "text": {
                    "div": "<div xmlns=\"http://www.w3.org/1999/xhtml\">2015-06-10: height = 86.7 cm</div>",
                    "status": "generated"
                },
                "valueQuantity": {
                    "code": "cm",
                    "system": "http://unitsofmeasure.org",
                    "unit": "cm",
                    "value": 86.7
                },
                "meta": {
                    "tag": [
                        {
                            "system": "https://smarthealthit.org/tags",
                            "code": "smart-7-2017"
                        }
                    ]
                }
            },
            "fullUrl": "/Observation/smart-1550-height"
        },
        {
            "request": {
                "method": "PUT",
                "url": "Observation/smart-1551-weight"
            },
            "resource": {
                "category": [
                    {
                        "coding": [
                            {
                                "code": "vital-signs",
                                "display": "Vital Signs",
                                "system": "http://hl7.org/fhir/observation-category"
                            }
                        ],
                        "text": "Vital Signs"
                    }
                ],
                "code": {
                    "coding": [
                        {
                            "code": "3141-9",
                            "display": "weight",
                            "system": "http://loinc.org"
                        }
                    ],
                    "text": "weight"
                },
                "context": {
                    "reference": "Encounter/smart-993"
                },
                "effectiveDateTime": "2015-06-10",
                "id": "smart-1551-weight",
                "identifier": [
                    {
                        "system": "http://www.bmc.nl/zorgportal/identifiers/observations",
                        "use": "official",
                        "value": "smart-1551-weight"
                    }
                ],
                "performer": [
                    {
                        "reference": "Practitioner/smart-Practitioner-72080416"
                    }
                ],
                "resourceType": "Observation",
                "status": "unknown",
                "subject": {
                    "reference": "Patient/smart-7777702"
                },
                "text": {
                    "div": "<div xmlns=\"http://www.w3.org/1999/xhtml\">2015-06-10: weight = 12.0 kg</div>",
                    "status": "generated"
                },
                "valueQuantity": {
                    "code": "kg",
                    "system": "http://unitsofmeasure.org",
                    "unit": "kg",
                    "value": 12
                },
                "meta": {
                    "tag": [
                        {
                            "system": "https://smarthealthit.org/tags",
                            "code": "smart-7-2017"
                        }
                    ]
                }
            },
            "fullUrl": "/Observation/smart-1551-weight"
        },
        {
            "request": {
                "method": "PUT",
                "url": "Observation/smart-1552-height"
            },
            "resource": {
                "category": [
                    {
                        "coding": [
                            {
                                "code": "vital-signs",
                                "display": "Vital Signs",
                                "system": "http://hl7.org/fhir/observation-category"
                            }
                        ],
                        "text": "Vital Signs"
                    }
                ],
                "code": {
                    "coding": [
                        {
                            "code": "8302-2",
                            "display": "height",
                            "system": "http://loinc.org"
                        }
                    ],
                    "text": "height"
                },
                "context": {
                    "reference": "Encounter/smart-994"
                },
                "effectiveDateTime": "2015-11-03",
                "id": "smart-1552-height",
                "identifier": [
                    {
                        "system": "http://www.bmc.nl/zorgportal/identifiers/observations",
                        "use": "official",
                        "value": "smart-1552-height"
                    }
                ],
                "performer": [
                    {
                        "reference": "Practitioner/smart-Practitioner-72080416"
                    }
                ],
                "resourceType": "Observation",
                "status": "unknown",
                "subject": {
                    "reference": "Patient/smart-7777702"
                },
                "text": {
                    "div": "<div xmlns=\"http://www.w3.org/1999/xhtml\">2015-11-03: height = 90.9 cm</div>",
                    "status": "generated"
                },
                "valueQuantity": {
                    "code": "cm",
                    "system": "http://unitsofmeasure.org",
                    "unit": "cm",
                    "value": 90.9
                },
                "meta": {
                    "tag": [
                        {
                            "system": "https://smarthealthit.org/tags",
                            "code": "smart-7-2017"
                        }
                    ]
                }
            },
            "fullUrl": "/Observation/smart-1552-height"
        },
        {
            "request": {
                "method": "PUT",
                "url": "Observation/smart-1553-weight"
            },
            "resource": {
                "category": [
                    {
                        "coding": [
                            {
                                "code": "vital-signs",
                                "display": "Vital Signs",
                                "system": "http://hl7.org/fhir/observation-category"
                            }
                        ],
                        "text": "Vital Signs"
                    }
                ],
                "code": {
                    "coding": [
                        {
                            "code": "3141-9",
                            "display": "weight",
                            "system": "http://loinc.org"
                        }
                    ],
                    "text": "weight"
                },
                "context": {
                    "reference": "Encounter/smart-994"
                },
                "effectiveDateTime": "2015-11-03",
                "id": "smart-1553-weight",
                "identifier": [
                    {
                        "system": "http://www.bmc.nl/zorgportal/identifiers/observations",
                        "use": "official",
                        "value": "smart-1553-weight"
                    }
                ],
                "performer": [
                    {
                        "reference": "Practitioner/smart-Practitioner-72080416"
                    }
                ],
                "resourceType": "Observation",
                "status": "unknown",
                "subject": {
                    "reference": "Patient/smart-7777702"
                },
                "text": {
                    "div": "<div xmlns=\"http://www.w3.org/1999/xhtml\">2015-11-03: weight = 12.7 kg</div>",
                    "status": "generated"
                },
                "valueQuantity": {
                    "code": "kg",
                    "system": "http://unitsofmeasure.org",
                    "unit": "kg",
                    "value": 12.7
                },
                "meta": {
                    "tag": [
                        {
                            "system": "https://smarthealthit.org/tags",
                            "code": "smart-7-2017"
                        }
                    ]
                }
            },
            "fullUrl": "/Observation/smart-1553-weight"
        },
        {
            "request": {
                "method": "PUT",
                "url": "Observation/smart-1554-height"
            },
            "resource": {
                "category": [
                    {
                        "coding": [
                            {
                                "code": "vital-signs",
                                "display": "Vital Signs",
                                "system": "http://hl7.org/fhir/observation-category"
                            }
                        ],
                        "text": "Vital Signs"
                    }
                ],
                "code": {
                    "coding": [
                        {
                            "code": "8302-2",
                            "display": "height",
                            "system": "http://loinc.org"
                        }
                    ],
                    "text": "height"
                },
                "context": {
                    "reference": "Encounter/smart-995"
                },
                "effectiveDateTime": "2016-03-28",
                "id": "smart-1554-height",
                "identifier": [
                    {
                        "system": "http://www.bmc.nl/zorgportal/identifiers/observations",
                        "use": "official",
                        "value": "smart-1554-height"
                    }
                ],
                "performer": [
                    {
                        "reference": "Practitioner/smart-Practitioner-72080416"
                    }
                ],
                "resourceType": "Observation",
                "status": "unknown",
                "subject": {
                    "reference": "Patient/smart-7777702"
                },
                "text": {
                    "div": "<div xmlns=\"http://www.w3.org/1999/xhtml\">2016-03-28: height = 95.4 cm</div>",
                    "status": "generated"
                },
                "valueQuantity": {
                    "code": "cm",
                    "system": "http://unitsofmeasure.org",
                    "unit": "cm",
                    "value": 95.4
                },
                "meta": {
                    "tag": [
                        {
                            "system": "https://smarthealthit.org/tags",
                            "code": "smart-7-2017"
                        }
                    ]
                }
            },
            "fullUrl": "/Observation/smart-1554-height"
        },
        {
            "request": {
                "method": "PUT",
                "url": "Observation/smart-1555-weight"
            },
            "resource": {
                "category": [
                    {
                        "coding": [
                            {
                                "code": "vital-signs",
                                "display": "Vital Signs",
                                "system": "http://hl7.org/fhir/observation-category"
                            }
                        ],
                        "text": "Vital Signs"
                    }
                ],
                "code": {
                    "coding": [
                        {
                            "code": "3141-9",
                            "display": "weight",
                            "system": "http://loinc.org"
                        }
                    ],
                    "text": "weight"
                },
                "context": {
                    "reference": "Encounter/smart-995"
                },
                "effectiveDateTime": "2016-03-28",
                "id": "smart-1555-weight",
                "identifier": [
                    {
                        "system": "http://www.bmc.nl/zorgportal/identifiers/observations",
                        "use": "official",
                        "value": "smart-1555-weight"
                    }
                ],
                "performer": [
                    {
                        "reference": "Practitioner/smart-Practitioner-72080416"
                    }
                ],
                "resourceType": "Observation",
                "status": "unknown",
                "subject": {
                    "reference": "Patient/smart-7777702"
                },
                "text": {
                    "div": "<div xmlns=\"http://www.w3.org/1999/xhtml\">2016-03-28: weight = 13.2 kg</div>",
                    "status": "generated"
                },
                "valueQuantity": {
                    "code": "kg",
                    "system": "http://unitsofmeasure.org",
                    "unit": "kg",
                    "value": 13.2
                },
                "meta": {
                    "tag": [
                        {
                            "system": "https://smarthealthit.org/tags",
                            "code": "smart-7-2017"
                        }
                    ]
                }
            },
            "fullUrl": "/Observation/smart-1555-weight"
        },
        {
            "request": {
                "method": "PUT",
                "url": "Observation/smart-1556-height"
            },
            "resource": {
                "category": [
                    {
                        "coding": [
                            {
                                "code": "vital-signs",
                                "display": "Vital Signs",
                                "system": "http://hl7.org/fhir/observation-category"
                            }
                        ],
                        "text": "Vital Signs"
                    }
                ],
                "code": {
                    "coding": [
                        {
                            "code": "8302-2",
                            "display": "height",
                            "system": "http://loinc.org"
                        }
                    ],
                    "text": "height"
                },
                "context": {
                    "reference": "Encounter/smart-996"
                },
                "effectiveDateTime": "2016-08-21",
                "id": "smart-1556-height",
                "identifier": [
                    {
                        "system": "http://www.bmc.nl/zorgportal/identifiers/observations",
                        "use": "official",
                        "value": "smart-1556-height"
                    }
                ],
                "performer": [
                    {
                        "reference": "Practitioner/smart-Practitioner-72080416"
                    }
                ],
                "resourceType": "Observation",
                "status": "unknown",
                "subject": {
                    "reference": "Patient/smart-7777702"
                },
                "text": {
                    "div": "<div xmlns=\"http://www.w3.org/1999/xhtml\">2016-08-21: height = 98.8 cm</div>",
                    "status": "generated"
                },
                "valueQuantity": {
                    "code": "cm",
                    "system": "http://unitsofmeasure.org",
                    "unit": "cm",
                    "value": 98.8
                },
                "meta": {
                    "tag": [
                        {
                            "system": "https://smarthealthit.org/tags",
                            "code": "smart-7-2017"
                        }
                    ]
                }
            },
            "fullUrl": "/Observation/smart-1556-height"
        },
        {
            "request": {
                "method": "PUT",
                "url": "Observation/smart-1557-weight"
            },
            "resource": {
                "category": [
                    {
                        "coding": [
                            {
                                "code": "vital-signs",
                                "display": "Vital Signs",
                                "system": "http://hl7.org/fhir/observation-category"
                            }
                        ],
                        "text": "Vital Signs"
                    }
                ],
                "code": {
                    "coding": [
                        {
                            "code": "3141-9",
                            "display": "weight",
                            "system": "http://loinc.org"
                        }
                    ],
                    "text": "weight"
                },
                "context": {
                    "reference": "Encounter/smart-996"
                },
                "effectiveDateTime": "2016-08-21",
                "id": "smart-1557-weight",
                "identifier": [
                    {
                        "system": "http://www.bmc.nl/zorgportal/identifiers/observations",
                        "use": "official",
                        "value": "smart-1557-weight"
                    }
                ],
                "performer": [
                    {
                        "reference": "Practitioner/smart-Practitioner-72080416"
                    }
                ],
                "resourceType": "Observation",
                "status": "unknown",
                "subject": {
                    "reference": "Patient/smart-7777702"
                },
                "text": {
                    "div": "<div xmlns=\"http://www.w3.org/1999/xhtml\">2016-08-21: weight = 14.4 kg</div>",
                    "status": "generated"
                },
                "valueQuantity": {
                    "code": "kg",
                    "system": "http://unitsofmeasure.org",
                    "unit": "kg",
                    "value": 14.4
                },
                "meta": {
                    "tag": [
                        {
                            "system": "https://smarthealthit.org/tags",
                            "code": "smart-7-2017"
                        }
                    ]
                }
            },
            "fullUrl": "/Observation/smart-1557-weight"
        },
        {
            "request": {
                "method": "PUT",
                "url": "FamilyMemberHistory/smart-FamilyMemberHistory-9"
            },
            "resource": {
                "extension": [
                    {
                        "url": "http://fhir-registry.smarthealthit.org/StructureDefinition/family-history#height",
                        "valueQuantity": {
                            "code": "cm",
                            "system": "http://unitsofmeasure.org",
                            "unit": "centimeters",
                            "value": 177
                        }
                    }
                ],
                "id": "smart-FamilyMemberHistory-9",
                "patient": {
                    "reference": "Patient/smart-7777702"
                },
                "relationship": {
                    "coding": [
                        {
                            "code": "FTH",
                            "display": "father",
                            "system": "http://hl7.org/fhir/v3/RoleCode"
                        }
                    ],
                    "text": "Father"
                },
                "resourceType": "FamilyMemberHistory",
                "status": "completed",
                "text": {
                    "div": "<div xmlns=\"http://www.w3.org/1999/xhtml\">Data on patient's Father</div>",
                    "status": "generated"
                },
                "meta": {
                    "tag": [
                        {
                            "system": "https://smarthealthit.org/tags",
                            "code": "smart-7-2017"
                        }
                    ]
                }
            },
            "fullUrl": "/FamilyMemberHistory/smart-FamilyMemberHistory-9"
        },
        {
            "request": {
                "method": "PUT",
                "url": "FamilyMemberHistory/smart-FamilyMemberHistory-10"
            },
            "resource": {
                "extension": [
                    {
                        "url": "http://fhir-registry.smarthealthit.org/StructureDefinition/family-history#height",
                        "valueQuantity": {
                            "code": "cm",
                            "system": "http://unitsofmeasure.org",
                            "unit": "centimeters",
                            "value": 164.5
                        }
                    }
                ],
                "id": "smart-FamilyMemberHistory-10",
                "patient": {
                    "reference": "Patient/smart-7777702"
                },
                "relationship": {
                    "coding": [
                        {
                            "code": "MTH",
                            "display": "mother",
                            "system": "http://hl7.org/fhir/v3/RoleCode"
                        }
                    ],
                    "text": "Mother"
                },
                "resourceType": "FamilyMemberHistory",
                "status": "completed",
                "text": {
                    "div": "<div xmlns=\"http://www.w3.org/1999/xhtml\">Data on patient's Mother</div>",
                    "status": "generated"
                },
                "meta": {
                    "tag": [
                        {
                            "system": "https://smarthealthit.org/tags",
                            "code": "smart-7-2017"
                        }
                    ]
                }
            },
            "fullUrl": "/FamilyMemberHistory/smart-FamilyMemberHistory-10"
        }
    ],
    "resourceType": "Bundle",
    "type": "transaction"
}